File: clay-plate-XRD-S2-2022/ENVT4461 S-15 Heated-550.csv
"Angle","Counts"
3.00243,28209
3.02417,27833
3.0459,27277
3.06763,26639
3.08936,26480
3.1111,25698
3.13283,25291
3.15456,24901
3.1763,24509
3.19803,24148
3.21976,23641
3.24149,23192
3.26323,22464
3.28496,22531
3.30669,22314
3.32843,21594
3.35016,21016
3.37189,21074
3.39363,20977
3.41536,20349
3.43709,20205
3.45882,19767
3.48056,19426
3.50229,19292
3.52402,18963
3.54576,18645
3.56749,18220
3.58922,17990
3.61095,18042
3.63269,17790
3.65442,17425
3.67615,17080
3.69789,16814
3.71962,16298
3.74135,16505
3.76308,16173
3.78482,16070
3.80655,15969
3.82828,15419
3.85002,15252
3.87175,14938
3.89348,14695
3.91521,14727
3.93695,14616
3.95868,14289
3.98041,13948
4.00215,13961
4.02388,13853
4.04561,13750
4.06734,13468
4.08908,13317
4.11081,13021
4.13254,13021
4.15428,12713
4.17601,12762
4.19774,12566
4.21947,12326
4.24121,12317
4.26294,12134
4.28467,12057
4.30641,11746
4.32814,11851
4.34987,11518
4.3716,11218
4.39334,11343
4.41507,11280
4.4368,10990
4.45854,11142
4.48027,10941
4.502,10772
4.52373,10705
4.54547,10772
4.5672,10427
4.58893,10567
4.61067,10305
4.6324,10548
4.65413,10302
4.67586,10277
4.6976,10356
4.71933,10082
4.74106,9921
4.7628,9721
4.78453,9708
4.80626,9519
4.828,9632
4.84973,9500
4.87146,9513
4.89319,9303
4.91493,9412
4.93666,9338
4.95839,9220
4.98013,9244
5.00186,9221
5.02359,9100
5.04532,9104
5.06706,9167
5.08879,9117
5.11052,9116
5.13226,8983
5.15399,8789
5.17572,8615
5.19745,8717
5.21919,8692
5.24092,8653
5.26265,8621
5.28439,8647
5.30612,8488
5.32785,8456
5.34958,8435
5.37132,8371
5.39305,8504
5.41478,8521
5.43652,8370
5.45825,8343
5.47998,8413
5.50171,8346
5.52345,8373
5.54518,8326
5.56691,8300
5.58865,8411
5.61038,8256
5.63211,8329
5.65384,8228
5.67558,8363
5.69731,8161
5.71904,8216
5.74078,8195
5.76251,8285
5.78424,8276
5.80597,8114
5.82771,8189
5.84944,8170
5.87117,8241
5.89291,8182
5.91464,8212
5.93637,8284
5.9581,8231
5.97984,8364
6.00157,8386
6.0233,8287
6.04504,8031
6.06677,8392
6.0885,8274
6.11024,8220
6.13197,8273
6.1537,8299
6.17543,8235
6.19717,8339
6.2189,8292
6.24063,8248
6.26237,8399
6.2841,8328
6.30583,8229
6.32756,8407
6.3493,8224
6.37103,8336
6.39276,8274
6.4145,8399
6.43623,8328
6.45796,8428
6.47969,8348
6.50143,8587
6.52316,8454
6.54489,8465
6.56663,8333
6.58836,8459
6.61009,8506
6.63182,8367
6.65356,8401
6.67529,8501
6.69702,8531
6.71876,8706
6.74049,8410
6.76222,8411
6.78395,8480
6.80569,8450
6.82742,8608
6.84915,8588
6.87089,8628
6.89262,8708
6.91435,8553
6.93608,8655
6.95782,8769
6.97955,8587
7.00128,8652
7.02302,8630
7.04475,8583
7.06648,8784
7.08821,8528
7.10995,8796
7.13168,8736
7.15341,8854
7.17515,8437
7.19688,8672
7.21861,8686
7.24034,8689
7.26208,8740
7.28381,8646
7.30554,8738
7.32728,8740
7.34901,9011
7.37074,8742
7.39247,8754
7.41421,8860
7.43594,8814
7.45767,8775
7.47941,8852
7.50114,8839
7.52287,8809
7.54461,8892
7.56634,8780
7.58807,8862
7.6098,9036
7.63154,8848
7.65327,8805
7.675,8947
7.69674,8962
7.71847,8950
7.7402,8973
7.76193,8905
7.78367,9142
7.8054,9026
7.82713,9039
7.84887,9133
7.8706,9068
7.89233,8987
7.91406,8931
7.9358,9203
7.95753,8961
7.97926,9109
8.001,9175
8.02273,9213
8.04446,9033
8.06619,9124
8.08793,9192
8.10966,9097
8.13139,9004
8.15313,9257
8.17486,9283
8.19659,9370
8.21832,9365
8.24006,9156
8.26179,9288
8.28352,9189
8.30526,9308
8.32699,9131
8.34872,9271
8.37045,9317
8.39219,9317
8.41392,9420
8.43565,9404
8.45739,9292
8.47912,9409
8.50085,9315
8.52258,9378
8.54432,9394
8.56605,9374
8.58778,9437
8.60952,9405
8.63125,9371
8.65298,9256
8.67471,9455
8.69645,9462
8.71818,9404
8.73991,9648
8.76165,9370
8.78338,9384
8.80511,9501
8.82685,9467
8.84858,9426
8.87031,9579
8.89204,9609
8.91378,9636
8.93551,9665
8.95724,9667
8.97898,9474
9.00071,9591
9.02244,9557
9.04417,9556
9.06591,9618
9.08764,9776
9.10937,9686
9.13111,9713
9.15284,9832
9.17457,9689
9.1963,9769
9.21804,9544
9.23977,9817
9.2615,9913
9.28324,9902
9.30497,9633
9.3267,9984
9.34843,9855
9.37017,9601
9.3919,9839
9.41363,10010
9.43537,9991
9.4571,9900
9.47883,9947
9.50056,10249
9.5223,10075
9.54403,10160
9.56576,10136
9.5875,10343
9.60923,10174
9.63096,10398
9.65269,10362
9.67443,10255
9.69616,10456
9.71789,10516
9.73963,10693
9.76136,10786
9.78309,10833
9.80482,10717
9.82656,10707
9.84829,10766
9.87002,10825
9.89176,10845
9.91349,10934
9.93522,10877
9.95695,11000
9.97869,10712
10.0004,10878
10.0222,10696
10.0439,10729
10.0656,10529
10.0874,10365
10.1091,10373
10.1308,10329
10.1526,10168
10.1743,10011
10.196,10007
10.2177,9639
10.2395,9556
10.2612,9430
10.2829,9412
10.3047,9272
10.3264,9277
10.3481,9230
10.3699,9005
10.3916,9190
10.4133,9007
10.4351,8799
10.4568,8861
10.4785,8851
10.5003,8760
10.522,8492
10.5437,8644
10.5655,8327
10.5872,8379
10.6089,8273
10.6307,8435
10.6524,8185
10.6741,8036
10.6959,7960
10.7176,8002
10.7393,7873
10.7611,7785
10.7828,7775
10.8045,7606
10.8263,7565
10.848,7424
10.8697,7458
10.8915,7484
10.9132,7290
10.9349,7226
10.9567,7190
10.9784,6973
11.0001,7018
11.0219,6735
11.0436,6779
11.0653,6679
11.0871,6725
11.1088,6712
11.1305,6674
11.1523,6599
11.174,6525
11.1957,6362
11.2175,6371
11.2392,6176
11.2609,6047
11.2827,6060
11.3044,6070
11.3261,5966
11.3479,5990
11.3696,5833
11.3913,5914
11.4131,5706
11.4348,5612
11.4565,5686
11.4783,5787
11.5,5596
11.5217,5374
11.5435,5481
11.5652,5338
11.5869,5359
11.6087,5318
11.6304,5281
11.6521,5232
11.6739,5122
11.6956,5160
11.7173,5079
11.7391,4949
11.7608,4987
11.7825,5002
11.8042,4912
11.826,4765
11.8477,4771
11.8694,4768
11.8912,4666
11.9129,4852
11.9346,4772
11.9564,4656
11.9781,4642
11.9998,4457
12.0216,4383
12.0433,4487
12.065,4305
12.0868,4356
12.1085,4241
12.1302,4231
12.152,4247
12.1737,4210
12.1954,4121
12.2172,4310
12.2389,4211
12.2606,4183
12.2824,4178
12.3041,4091
12.3258,4026
12.3476,3956
12.3693,3924
12.391,3968
12.4128,3875
12.4345,3968
12.4562,3800
12.478,3829
12.4997,3788
12.5214,3754
12.5432,3818
12.5649,3769
12.5866,3701
12.6084,3718
12.6301,3729
12.6518,3648
12.6736,3632
12.6953,3605
12.717,3640
12.7388,3571
12.7605,3593
12.7822,3488
12.804,3630
12.8257,3571
12.8474,3530
12.8692,3539
12.8909,3615
12.9126,3496
12.9344,3481
12.9561,3416
12.9778,3379
12.9996,3394
13.0213,3424
13.043,3393
13.0648,3425
13.0865,3274
13.1082,3367
13.13,3249
13.1517,3259
13.1734,3340
13.1952,3386
13.2169,3374
13.2386,3318
13.2604,3291
13.2821,3351
13.3038,3197
13.3256,3397
13.3473,3213
13.369,3263
13.3907,3213
13.4125,3276
13.4342,3204
13.4559,3237
13.4777,3137
13.4994,3217
13.5211,3124
13.5429,3208
13.5646,3066
13.5863,3211
13.6081,3099
13.6298,3164
13.6515,3089
13.6733,3130
13.695,3123
13.7167,3077
13.7385,3030
13.7602,3111
13.7819,3073
13.8037,3080
13.8254,3146
13.8471,3114
13.8689,3054
13.8906,3063
13.9123,3065
13.9341,3030
13.9558,2990
13.9775,3019
13.9993,3075
14.021,3102
14.0427,3030
14.0645,2977
14.0862,2982
14.1079,3063
14.1297,2957
14.1514,2956
14.1731,3026
14.1949,3077
14.2166,2971
14.2383,2991
14.2601,2935
14.2818,2937
14.3035,2911
14.3253,3099
14.347,2976
14.3687,3024
14.3905,2948
14.4122,3065
14.4339,2996
14.4557,2943
14.4774,3012
14.4991,3065
14.5209,2961
14.5426,3066
14.5643,3018
14.5861,2955
14.6078,2968
14.6295,3004
14.6513,2859
14.673,2998
14.6947,2985
14.7165,2923
14.7382,2990
14.7599,2954
14.7817,2967
14.8034,2999
14.8251,3017
14.8469,2943
14.8686,2936
14.8903,2895
14.9121,2935
14.9338,3036
14.9555,2962
14.9773,3004
14.999,3068
15.0207,3045
15.0424,3001
15.0642,2994
15.0859,2842
15.1076,2913
15.1294,2968
15.1511,3040
15.1728,2873
15.1946,2954
15.2163,2854
15.238,2818
15.2598,2974
15.2815,3007
15.3032,2902
15.325,2900
15.3467,2975
15.3684,2953
15.3902,2917
15.4119,2934
15.4336,2928
15.4554,2827
15.4771,3023
15.4988,2858
15.5206,2913
15.5423,2997
15.564,2929
15.5858,2950
15.6075,2933
15.6292,2929
15.651,2863
15.6727,2933
15.6944,2921
15.7162,2973
15.7379,2847
15.7596,3017
15.7814,2939
15.8031,2810
15.8248,2936
15.8466,2903
15.8683,2929
15.89,3022
15.9118,2979
15.9335,2970
15.9552,2861
15.977,2917
15.9987,2905
16.0204,2896
16.0422,2997
16.0639,2866
16.0856,2860
16.1074,2892
16.1291,2877
16.1508,2975
16.1726,3053
16.1943,2952
16.216,2889
16.2378,2828
16.2595,2846
16.2812,2947
16.303,2877
16.3247,3016
16.3464,2918
16.3682,3012
16.3899,2934
16.4116,2866
16.4334,2867
16.4551,2904
16.4768,2875
16.4986,2975
16.5203,2918
16.542,3046
16.5638,2922
16.5855,2923
16.6072,2926
16.6289,2900
16.6507,2971
16.6724,2966
16.6941,2808
16.7159,2958
16.7376,2852
16.7593,2893
16.7811,2869
16.8028,2911
16.8245,3015
16.8463,2982
16.868,2947
16.8897,2879
16.9115,2913
16.9332,2997
16.9549,3015
16.9767,2936
16.9984,2893
17.0201,2957
17.0419,2930
17.0636,2916
17.0853,2847
17.1071,2950
17.1288,2847
17.1505,2962
17.1723,2933
17.194,2923
17.2157,2875
17.2375,2921
17.2592,2873
17.2809,2987
17.3027,2914
17.3244,2993
17.3461,2960
17.3679,2839
17.3896,2911
17.4113,2922
17.4331,2935
17.4548,2968
17.4765,2935
17.4983,2882
17.52,2860
17.5417,2870
17.5635,2909
17.5852,2925
17.6069,3005
17.6287,2845
17.6504,2880
17.6721,2948
17.6939,2971
17.7156,2939
17.7373,2907
17.7591,2841
17.7808,2837
17.8025,2995
17.8243,3065
17.846,2914
17.8677,2967
17.8895,2926
17.9112,2888
17.9329,2945
17.9547,2833
17.9764,2886
17.9981,2947
18.0199,2893
18.0416,3032
18.0633,2912
18.0851,2919
18.1068,2953
18.1285,2983
18.1503,3031
18.172,2985
18.1937,3012
18.2154,2909
18.2372,2977
18.2589,2840
18.2806,2955
18.3024,2974
18.3241,2868
18.3458,2996
18.3676,2959
18.3893,2978
18.411,3106
18.4328,3061
18.4545,2970
18.4762,2959
18.498,2892
18.5197,2907
18.5414,3003
18.5632,3073
18.5849,3011
18.6066,3047
18.6284,2975
18.6501,2984
18.6718,2939
18.6936,3066
18.7153,2927
18.737,2931
18.7588,2960
18.7805,3089
18.8022,3036
18.824,3087
18.8457,2958
18.8674,3004
18.8892,2958
18.9109,3083
18.9326,2958
18.9544,3058
18.9761,3090
18.9978,3145
19.0196,3038
19.0413,3088
19.063,3083
19.0848,2983
19.1065,3149
19.1282,2952
19.15,2948
19.1717,3014
19.1934,3007
19.2152,2959
19.2369,3163
19.2586,3086
19.2804,2998
19.3021,3101
19.3238,3053
19.3456,3109
19.3673,3162
19.389,3143
19.4108,3079
19.4325,3073
19.4542,3184
19.476,2980
19.4977,3074
19.5194,3095
19.5412,3070
19.5629,3062
19.5846,3190
19.6064,3136
19.6281,3121
19.6498,3105
19.6716,3126
19.6933,3114
19.715,3114
19.7368,3272
19.7585,3253
19.7802,3287
19.8019,3205
19.8237,3147
19.8454,3230
19.8671,3263
19.8889,3124
19.9106,3272
19.9323,3280
19.9541,3330
19.9758,3292
19.9975,3349
20.0193,3380
20.041,3383
20.0627,3350
20.0845,3472
20.1062,3461
20.1279,3368
20.1497,3517
20.1714,3407
20.1931,3588
20.2149,3380
20.2366,3329
20.2583,3466
20.2801,3524
20.3018,3515
20.3235,3384
20.3453,3492
20.367,3445
20.3887,3441
20.4105,3474
20.4322,3390
20.4539,3393
20.4757,3395
20.4974,3305
20.5191,3299
20.5409,3311
20.5626,3246
20.5843,3343
20.6061,3236
20.6278,3211
20.6495,3261
20.6713,3250
20.693,3228
20.7147,3376
20.7365,3239
20.7582,3209
20.7799,3332
20.8017,3188
20.8234,3264
20.8451,3288
20.8669,3246
20.8886,3147
20.9103,3299
20.9321,3336
20.9538,3279
20.9755,3190
20.9973,3201
21.019,3278
21.0407,3302
21.0625,3186
21.0842,3231
21.1059,3194
21.1277,3226
21.1494,3232
21.1711,3214
21.1929,3281
21.2146,3112
21.2363,3155
21.2581,3189
21.2798,3064
21.3015,3178
21.3233,3103
21.345,3119
21.3667,3126
21.3884,3209
21.4102,3265
21.4319,3200
21.4536,3172
21.4754,3218
21.4971,3163
21.5188,3173
21.5406,3185
21.5623,3201
21.584,3194
21.6058,3124
21.6275,3244
21.6492,3253
21.671,3163
21.6927,3216
21.7144,3184
21.7362,3059
21.7579,3132
21.7796,3124
21.8014,3092
21.8231,3173
21.8448,3186
21.8666,3142
21.8883,3133
21.91,3133
21.9318,3135
21.9535,3180
21.9752,3235
21.997,3226
22.0187,3084
22.0404,3130
22.0622,3120
22.0839,3120
22.1056,3224
22.1274,3176
22.1491,3213
22.1708,3214
22.1926,3261
22.2143,3225
22.236,3236
22.2578,3214
22.2795,3201
22.3012,3222
22.323,3249
22.3447,3253
22.3664,3241
22.3882,3317
22.4099,3305
22.4316,3316
22.4534,3330
22.4751,3331
22.4968,3245
22.5186,3307
22.5403,3383
22.562,3424
22.5838,3367
22.6055,3440
22.6272,3336
22.649,3507
22.6707,3341
22.6924,3506
22.7142,3603
22.7359,3562
22.7576,3534
22.7794,3614
22.8011,3561
22.8228,3593
22.8446,3612
22.8663,3580
22.888,3712
22.9098,3593
22.9315,3553
22.9532,3605
22.9749,3621
22.9967,3483
23.0184,3548
23.0401,3565
23.0619,3567
23.0836,3386
23.1053,3511
23.1271,3648
23.1488,3499
23.1705,3592
23.1923,3529
23.214,3396
23.2357,3545
23.2575,3485
23.2792,3511
23.3009,3511
23.3227,3424
23.3444,3680
23.3661,3670
23.3879,3526
23.4096,3543
23.4313,3517
23.4531,3414
23.4748,3539
23.4965,3554
23.5183,3555
23.54,3509
23.5617,3448
23.5835,3479
23.6052,3527
23.6269,3547
23.6487,3436
23.6704,3465
23.6921,3427
23.7139,3303
23.7356,3390
23.7573,3411
23.7791,3413
23.8008,3430
23.8225,3512
23.8443,3462
23.866,3370
23.8877,3398
23.9095,3493
23.9312,3683
23.9529,3432
23.9747,3502
23.9964,3576
24.0181,3501
24.0399,3553
24.0616,3570
24.0833,3557
24.1051,3551
24.1268,3482
24.1485,3511
24.1703,3490
24.192,3486
24.2137,3515
24.2355,3476
24.2572,3573
24.2789,3464
24.3007,3495
24.3224,3348
24.3441,3469
24.3659,3430
24.3876,3342
24.4093,3366
24.4311,3288
24.4528,3378
24.4745,3299
24.4963,3407
24.518,3301
24.5397,3335
24.5615,3321
24.5832,3353
24.6049,3376
24.6266,3465
24.6484,3423
24.6701,3404
24.6918,3372
24.7136,3445
24.7353,3276
24.757,3368
24.7788,3398
24.8005,3303
24.8222,3372
24.844,3324
24.8657,3248
24.8874,3401
24.9092,3408
24.9309,3417
24.9526,3434
24.9744,3481
24.9961,3443
25.0178,3434
25.0396,3427
25.0613,3308
25.083,3310
25.1048,3295
25.1265,3417
25.1482,3398
25.17,3433
25.1917,3440
25.2134,3324
25.2352,3423
25.2569,3319
25.2786,3423
25.3004,3429
25.3221,3465
25.3438,3483
25.3656,3399
25.3873,3346
25.409,3412
25.4308,3389
25.4525,3478
25.4742,3405
25.496,3469
25.5177,3355
25.5394,3351
25.5612,3334
25.5829,3281
25.6046,3461
25.6264,3336
25.6481,3406
25.6698,3352
25.6916,3387
25.7133,3353
25.735,3411
25.7568,3441
25.7785,3408
25.8002,3478
25.822,3488
25.8437,3500
25.8654,3378
25.8872,3386
25.9089,3475
25.9306,3444
25.9524,3363
25.9741,3286
25.9958,3344
26.0176,3503
26.0393,3570
26.061,3408
26.0828,3411
26.1045,3429
26.1262,3368
26.148,3461
26.1697,3368
26.1914,3404
26.2131,3389
26.2349,3455
26.2566,3374
26.2783,3478
26.3001,3413
26.3218,3341
26.3435,3399
26.3653,3395
26.387,3533
26.4087,3465
26.4305,3424
26.4522,3317
26.4739,3406
26.4957,3405
26.5174,3358
26.5391,3368
26.5609,3322
26.5826,3371
26.6043,3372
26.6261,3520
26.6478,3362
26.6695,3534
26.6913,3380
26.713,3380
26.7347,3414
26.7565,3310
26.7782,3459
26.7999,3471
26.8217,3495
26.8434,3431
26.8651,3451
26.8869,3387
26.9086,3318
26.9303,3426
26.9521,3343
26.9738,3393
26.9955,3411
27.0173,3450
27.039,3391
27.0607,3415
27.0825,3439
27.1042,3310
27.1259,3482
27.1477,3349
27.1694,3399
27.1911,3517
27.2129,3497
27.2346,3383
27.2563,3395
27.2781,3321
27.2998,3437
27.3215,3526
27.3433,3418
27.365,3404
27.3867,3374
27.4085,3331
27.4302,3421
27.4519,3457
27.4737,3443
27.4954,3424
27.5171,3430
27.5389,3488
27.5606,3371
27.5823,3438
27.6041,3414
27.6258,3486
27.6475,3362
27.6693,3380
27.691,3447
27.7127,3439
27.7345,3353
27.7562,3444
27.7779,3435
27.7996,3413
27.8214,3440
27.8431,3420
27.8648,3495
27.8866,3377
27.9083,3414
27.93,3460
27.9518,3513
27.9735,3409
27.9952,3461
28.017,3460
28.0387,3444
28.0604,3433
28.0822,3560
28.1039,3445
28.1256,3455
28.1474,3468
28.1691,3466
28.1908,3453
28.2126,3455
28.2343,3398
28.256,3465
28.2778,3418
28.2995,3446
28.3212,3530
28.343,3432
28.3647,3493
28.3864,3312
28.4082,3465
28.4299,3488
28.4516,3367
28.4734,3480
28.4951,3577
28.5168,3510
28.5386,3506
28.5603,3527
28.582,3498
28.6038,3540
28.6255,3558
28.6472,3548
28.669,3532
28.6907,3529
28.7124,3481
28.7342,3584
28.7559,3563
28.7776,3598
28.7994,3499
28.8211,3481
28.8428,3640
28.8646,3670
28.8863,3599
28.908,3656
28.9298,3614
28.9515,3686
28.9732,3720
28.995,3614
29.0167,3683
29.0384,3810
29.0602,3778
29.0819,3684
29.1036,3815
29.1254,3727
29.1471,3841
29.1688,3945
29.1906,3922
29.2123,3927
29.234,4055
29.2558,3867
29.2775,3992
29.2992,3893
29.321,4038
29.3427,3920
29.3644,3974
29.3861,4024
29.4079,3952
29.4296,3901
29.4513,3989
29.4731,4027
29.4948,3920
29.5165,3904
29.5383,3828
29.56,3790
29.5817,3999
29.6035,3924
29.6252,3923
29.6469,3935
29.6687,3965
29.6904,3781
29.7121,3978
29.7339,3993
29.7556,3942
29.7773,4034
29.7991,3945
29.8208,3934
29.8425,4045
29.8643,3990
29.886,3970
29.9077,4039
29.9295,4134
29.9512,4117
29.9729,4114
29.9947,4231