File: clay-plate-XRD-S2-2022/ENVT4461 S-15 Heated-400.csv
"Angle","Counts"
3.00243,26794
3.02417,26116
3.0459,25767
3.06763,25485
3.08936,24787
3.1111,24413
3.13283,24206
3.15456,23755
3.1763,23441
3.19803,23353
3.21976,22919
3.24149,22613
3.26323,22072
3.28496,22069
3.30669,21561
3.32843,20848
3.35016,20994
3.37189,20699
3.39363,20279
3.41536,19953
3.43709,19743
3.45882,19685
3.48056,19562
3.50229,19202
3.52402,18800
3.54576,18333
3.56749,18604
3.58922,18234
3.61095,17958
3.63269,18058
3.65442,17716
3.67615,17508
3.69789,17319
3.71962,17090
3.74135,16924
3.76308,16550
3.78482,16410
3.80655,16334
3.82828,16131
3.85002,15938
3.87175,15663
3.89348,15825
3.91521,15844
3.93695,15355
3.95868,15334
3.98041,14922
4.00215,15014
4.02388,14823
4.04561,14829
4.06734,14520
4.08908,14218
4.11081,14435
4.13254,14188
4.15428,14404
4.17601,13979
4.19774,13739
4.21947,13819
4.24121,13740
4.26294,13600
4.28467,13402
4.30641,13506
4.32814,13464
4.34987,13332
4.3716,13179
4.39334,13281
4.41507,13089
4.4368,13181
4.45854,12945
4.48027,12801
4.502,12673
4.52373,12826
4.54547,12670
4.5672,12542
4.58893,12419
4.61067,12403
4.6324,12355
4.65413,12345
4.67586,12285
4.6976,12209
4.71933,12094
4.74106,12213
4.7628,11981
4.78453,11968
4.80626,12003
4.828,11757
4.84973,11820
4.87146,11786
4.89319,11866
4.91493,11737
4.93666,11673
4.95839,11534
4.98013,11703
5.00186,11663
5.02359,11493
5.04532,11639
5.06706,11397
5.08879,11479
5.11052,11449
5.13226,11298
5.15399,11351
5.17572,11402
5.19745,11364
5.21919,11352
5.24092,11215
5.26265,11397
5.28439,11197
5.30612,11242
5.32785,11249
5.34958,11238
5.37132,11277
5.39305,11138
5.41478,11109
5.43652,11061
5.45825,11089
5.47998,11018
5.50171,10814
5.52345,10825
5.54518,10918
5.56691,10771
5.58865,10781
5.61038,10832
5.63211,11015
5.65384,10896
5.67558,10889
5.69731,10861
5.71904,10955
5.74078,10821
5.76251,10785
5.78424,10775
5.80597,10875
5.82771,10628
5.84944,10686
5.87117,10587
5.89291,10653
5.91464,10624
5.93637,10574
5.9581,10786
5.97984,10750
6.00157,10591
6.0233,10770
6.04504,10644
6.06677,10621
6.0885,10857
6.11024,10792
6.13197,10747
6.1537,10797
6.17543,10695
6.19717,10784
6.2189,10746
6.24063,10785
6.26237,10760
6.2841,10748
6.30583,10538
6.32756,10788
6.3493,10965
6.37103,10496
6.39276,10608
6.4145,10634
6.43623,10547
6.45796,10508
6.47969,10564
6.50143,10796
6.52316,10733
6.54489,10725
6.56663,10460
6.58836,10588
6.61009,10873
6.63182,10563
6.65356,10469
6.67529,10684
6.69702,10655
6.71876,10629
6.74049,10631
6.76222,10719
6.78395,10595
6.80569,10492
6.82742,10631
6.84915,10564
6.87089,10499
6.89262,10620
6.91435,10709
6.93608,10747
6.95782,10556
6.97955,10427
7.00128,10716
7.02302,10660
7.04475,10555
7.06648,10416
7.08821,10540
7.10995,10445
7.13168,10638
7.15341,10356
7.17515,10513
7.19688,10461
7.21861,10457
7.24034,10615
7.26208,10496
7.28381,10432
7.30554,10393
7.32728,10422
7.34901,10629
7.37074,10438
7.39247,10242
7.41421,10458
7.43594,10431
7.45767,10671
7.47941,10428
7.50114,10324
7.52287,10436
7.54461,10538
7.56634,10597
7.58807,10572
7.6098,10471
7.63154,10446
7.65327,10539
7.675,10415
7.69674,10419
7.71847,10540
7.7402,10349
7.76193,10594
7.78367,10062
7.8054,10379
7.82713,10408
7.84887,10265
7.8706,10672
7.89233,10207
7.91406,10353
7.9358,10367
7.95753,10267
7.97926,10272
8.001,10353
8.02273,10501
8.04446,10155
8.06619,10396
8.08793,10309
8.10966,10110
8.13139,10399
8.15313,10414
8.17486,10448
8.19659,10467
8.21832,10210
8.24006,10555
8.26179,10309
8.28352,10253
8.30526,10392
8.32699,10478
8.34872,10362
8.37045,10335
8.39219,10244
8.41392,10178
8.43565,10271
8.45739,10367
8.47912,10455
8.50085,10330
8.52258,10462
8.54432,10253
8.56605,10374
8.58778,10440
8.60952,10341
8.63125,10280
8.65298,10437
8.67471,10280
8.69645,10476
8.71818,10222
8.73991,10452
8.76165,10403
8.78338,10508
8.80511,10331
8.82685,10378
8.84858,10503
8.87031,10318
8.89204,10314
8.91378,10413
8.93551,10289
8.95724,10153
8.97898,10382
9.00071,10412
9.02244,10256
9.04417,10140
9.06591,10520
9.08764,10421
9.10937,10297
9.13111,10298
9.15284,10372
9.17457,10367
9.1963,10418
9.21804,10554
9.23977,10694
9.2615,10509
9.28324,10491
9.30497,10265
9.3267,10604
9.34843,10527
9.37017,10546
9.3919,10671
9.41363,10637
9.43537,10605
9.4571,10571
9.47883,10553
9.50056,10527
9.5223,10560
9.54403,10720
9.56576,10580
9.5875,10809
9.60923,10790
9.63096,10890
9.65269,10737
9.67443,10788
9.69616,10986
9.71789,11186
9.73963,11234
9.76136,11186
9.78309,11031
9.80482,11228
9.82656,11469
9.84829,11242
9.87002,11217
9.89176,11400
9.91349,11320
9.93522,11382
9.95695,11256
9.97869,11185
10.0004,11388
10.0222,11302
10.0439,10832
10.0656,10809
10.0874,10759
10.1091,10505
10.1308,10664
10.1526,10379
10.1743,10435
10.196,10267
10.2177,10263
10.2395,10383
10.2612,10261
10.2829,10178
10.3047,10079
10.3264,9942
10.3481,10116
10.3699,9921
10.3916,9931
10.4133,9824
10.4351,9719
10.4568,9745
10.4785,9547
10.5003,9564
10.522,9779
10.5437,9612
10.5655,9545
10.5872,9582
10.6089,9436
10.6307,9620
10.6524,9542
10.6741,9265
10.6959,9548
10.7176,9299
10.7393,9482
10.7611,9393
10.7828,9180
10.8045,9398
10.8263,9080
10.848,9157
10.8697,9116
10.8915,8989
10.9132,9217
10.9349,9181
10.9567,8997
10.9784,9047
11.0001,8955
11.0219,8738
11.0436,8777
11.0653,8828
11.0871,8713
11.1088,8806
11.1305,8747
11.1523,8737
11.174,8627
11.1957,8709
11.2175,8876
11.2392,8766
11.2609,8638
11.2827,8650
11.3044,8538
11.3261,8544
11.3479,8585
11.3696,8768
11.3913,8519
11.4131,8531
11.4348,8658
11.4565,8561
11.4783,8397
11.5,8480
11.5217,8388
11.5435,8379
11.5652,8379
11.5869,8565
11.6087,8294
11.6304,8499
11.6521,8434
11.6739,8253
11.6956,8333
11.7173,8315
11.7391,8224
11.7608,8215
11.7825,8403
11.8042,8314
11.826,8191
11.8477,8239
11.8694,8342
11.8912,8252
11.9129,8254
11.9346,8320
11.9564,8160
11.9781,8309
11.9998,8237
12.0216,8163
12.0433,8205
12.065,8109
12.0868,8319
12.1085,8254
12.1302,7955
12.152,8271
12.1737,8149
12.1954,8123
12.2172,8196
12.2389,8138
12.2606,8247
12.2824,8038
12.3041,8079
12.3258,8165
12.3476,8113
12.3693,8220
12.391,8075
12.4128,8179
12.4345,8285
12.4562,8357
12.478,8305
12.4997,8310
12.5214,8154
12.5432,8365
12.5649,8502
12.5866,8434
12.6084,8286
12.6301,8490
12.6518,8408
12.6736,8530
12.6953,8649
12.717,8476
12.7388,8433
12.7605,8505
12.7822,8642
12.804,8486
12.8257,8617
12.8474,8652
12.8692,8731
12.8909,8748
12.9126,8950
12.9344,8802
12.9561,9062
12.9778,8974
12.9996,8973
13.0213,9132
13.043,9138
13.0648,9155
13.0865,9269
13.1082,9430
13.13,9318
13.1517,9433
13.1734,9422
13.1952,9629
13.2169,9818
13.2386,10016
13.2604,10180
13.2821,10072
13.3038,10079
13.3256,10497
13.3473,10706
13.369,10876
13.3907,11242
13.4125,11184
13.4342,11717
13.4559,11650
13.4777,11903
13.4994,12537
13.5211,12839
13.5429,13027
13.5646,13701
13.5863,13834
13.6081,14565
13.6298,14945
13.6515,15743
13.6733,16442
13.695,17025
13.7167,17580
13.7385,18394
13.7602,19545
13.7819,20560
13.8037,21187
13.8254,22369
13.8471,23384
13.8689,24543
13.8906,25719
13.9123,26831
13.9341,27898
13.9558,28327
13.9775,29657
13.9993,30139
14.021,30535
14.0427,30906
14.0645,29931
14.0862,28319
14.1079,27203
14.1297,25231
14.1514,23381
14.1731,20779
14.1949,19150
14.2166,17067
14.2383,15814
14.2601,14510
14.2818,13255
14.3035,12645
14.3253,11631
14.347,10905
14.3687,10113
14.3905,9422
14.4122,9175
14.4339,8713
14.4557,8515
14.4774,8391
14.4991,7805
14.5209,7487
14.5426,7173
14.5643,7184
14.5861,6714
14.6078,6622
14.6295,6403
14.6513,6268
14.673,6090
14.6947,5926
14.7165,5769
14.7382,5745
14.7599,5626
14.7817,5465
14.8034,5397
14.8251,5162
14.8469,5157
14.8686,5077
14.8903,5061
14.9121,4846
14.9338,4971
14.9555,4842
14.9773,4809
14.999,4622
15.0207,4553
15.0424,4573
15.0642,4502
15.0859,4443
15.1076,4380
15.1294,4318
15.1511,4299
15.1728,4337
15.1946,4205
15.2163,4241
15.238,4292
15.2598,4119
15.2815,3982
15.3032,4022
15.325,3956
15.3467,3965
15.3684,4034
15.3902,3992
15.4119,3862
15.4336,3797
15.4554,3784
15.4771,3802
15.4988,3886
15.5206,3632
15.5423,3637
15.564,3691
15.5858,3660
15.6075,3680
15.6292,3494
15.651,3567
15.6727,3587
15.6944,3581
15.7162,3543
15.7379,3459
15.7596,3521
15.7814,3485
15.8031,3502
15.8248,3438
15.8466,3368
15.8683,3349
15.89,3426
15.9118,3373
15.9335,3490
15.9552,3430
15.977,3317
15.9987,3384
16.0204,3298
16.0422,3367
16.0639,3313
16.0856,3261
16.1074,3246
16.1291,3265
16.1508,3224
16.1726,3254
16.1943,3180
16.216,3322
16.2378,3197
16.2595,3189
16.2812,3201
16.303,3173
16.3247,3185
16.3464,3189
16.3682,3116
16.3899,3086
16.4116,3069
16.4334,3080
16.4551,3058
16.4768,3101
16.4986,3184
16.5203,3196
16.542,3085
16.5638,3062
16.5855,2996
16.6072,3051
16.6289,2927
16.6507,3016
16.6724,2985
16.6941,2997
16.7159,2908
16.7376,3001
16.7593,3051
16.7811,3040
16.8028,2984
16.8245,2977
16.8463,2884
16.868,2826
16.8897,3019
16.9115,2864
16.9332,3047
16.9549,3020
16.9767,2924
16.9984,2923
17.0201,2948
17.0419,2800
17.0636,2843
17.0853,2901
17.1071,2843
17.1288,2823
17.1505,2779
17.1723,2783
17.194,2910
17.2157,2803
17.2375,2792
17.2592,2807
17.2809,2828
17.3027,2801
17.3244,2781
17.3461,2836
17.3679,2800
17.3896,2724
17.4113,2781
17.4331,2738
17.4548,2611
17.4765,2749
17.4983,2791
17.52,2716
17.5417,2721
17.5635,2693
17.5852,2732
17.6069,2763
17.6287,2846
17.6504,2712
17.6721,2729
17.6939,2667
17.7156,2728
17.7373,2814
17.7591,2765
17.7808,2705
17.8025,2651
17.8243,2761
17.846,2722
17.8677,2639
17.8895,2703
17.9112,2722
17.9329,2701
17.9547,2629
17.9764,2750
17.9981,2668
18.0199,2724
18.0416,2727
18.0633,2673
18.0851,2590
18.1068,2673
18.1285,2667
18.1503,2798
18.172,2747
18.1937,2602
18.2154,2541
18.2372,2691
18.2589,2622
18.2806,2611
18.3024,2535
18.3241,2586
18.3458,2672
18.3676,2589
18.3893,2626
18.411,2615
18.4328,2672
18.4545,2532
18.4762,2566
18.498,2570
18.5197,2687
18.5414,2691
18.5632,2622
18.5849,2708
18.6066,2675
18.6284,2579
18.6501,2540
18.6718,2675
18.6936,2588
18.7153,2618
18.737,2644
18.7588,2648
18.7805,2583
18.8022,2593
18.824,2642
18.8457,2643
18.8674,2537
18.8892,2579
18.9109,2530
18.9326,2617
18.9544,2545
18.9761,2604
18.9978,2656
19.0196,2597
19.0413,2584
19.063,2602
19.0848,2601
19.1065,2595
19.1282,2620
19.15,2564
19.1717,2601
19.1934,2575
19.2152,2610
19.2369,2607
19.2586,2519
19.2804,2579
19.3021,2537
19.3238,2654
19.3456,2532
19.3673,2648
19.389,2602
19.4108,2639
19.4325,2602
19.4542,2626
19.476,2562
19.4977,2504
19.5194,2585
19.5412,2636
19.5629,2641
19.5846,2539
19.6064,2633
19.6281,2480
19.6498,2651
19.6716,2558
19.6933,2552
19.715,2556
19.7368,2537
19.7585,2634
19.7802,2609
19.8019,2612
19.8237,2543
19.8454,2602
19.8671,2576
19.8889,2555
19.9106,2609
19.9323,2687
19.9541,2594
19.9758,2547
19.9975,2573
20.0193,2605
20.041,2678
20.0627,2591
20.0845,2765
20.1062,2685
20.1279,2811
20.1497,2729
20.1714,2728
20.1931,2765
20.2149,2777
20.2366,2742
20.2583,2918
20.2801,2782
20.3018,2854
20.3235,2936
20.3453,2942
20.367,2841
20.3887,2909
20.4105,2780
20.4322,2871
20.4539,2834
20.4757,2755
20.4974,2765
20.5191,2757
20.5409,2731
20.5626,2714
20.5843,2762
20.6061,2541
20.6278,2654
20.6495,2690
20.6713,2674
20.693,2577
20.7147,2606
20.7365,2612
20.7582,2543
20.7799,2635
20.8017,2604
20.8234,2538
20.8451,2542
20.8669,2588
20.8886,2524
20.9103,2554
20.9321,2540
20.9538,2490
20.9755,2500
20.9973,2581
21.019,2578
21.0407,2534
21.0625,2440
21.0842,2513
21.1059,2489
21.1277,2498
21.1494,2425
21.1711,2525
21.1929,2511
21.2146,2421
21.2363,2506
21.2581,2551
21.2798,2479
21.3015,2503
21.3233,2360
21.345,2527
21.3667,2598
21.3884,2434
21.4102,2435
21.4319,2468
21.4536,2478
21.4754,2439
21.4971,2456
21.5188,2377
21.5406,2463
21.5623,2439
21.584,2432
21.6058,2400
21.6275,2472
21.6492,2492
21.671,2525
21.6927,2442
21.7144,2392
21.7362,2443
21.7579,2441
21.7796,2393
21.8014,2420
21.8231,2399
21.8448,2493
21.8666,2447
21.8883,2447
21.91,2392
21.9318,2421
21.9535,2502
21.9752,2542
21.997,2456
22.0187,2441
22.0404,2418
22.0622,2445
22.0839,2513
22.1056,2470
22.1274,2424
22.1491,2474
22.1708,2497
22.1926,2543
22.2143,2475
22.236,2573
22.2578,2576
22.2795,2557
22.3012,2527
22.323,2717
22.3447,2670
22.3664,2615
22.3882,2643
22.4099,2766
22.4316,2741
22.4534,2729
22.4751,2743
22.4968,2784
22.5186,2838
22.5403,2837
22.562,2851
22.5838,2920
22.6055,3088
22.6272,3030
22.649,3165
22.6707,3078
22.6924,3098
22.7142,3164
22.7359,3302
22.7576,3272
22.7794,3251
22.8011,3362
22.8228,3256
22.8446,3372
22.8663,3349
22.888,3376
22.9098,3325
22.9315,3351
22.9532,3372
22.9749,3195
22.9967,3249
23.0184,3218
23.0401,3138
23.0619,3133
23.0836,3099
23.1053,3070
23.1271,3202
23.1488,3123
23.1705,3189
23.1923,3167
23.214,2983
23.2357,3049
23.2575,3224
23.2792,3155
23.3009,3119
23.3227,3092
23.3444,3158
23.3661,3076
23.3879,3088
23.4096,3032
23.4313,2992
23.4531,3158
23.4748,3195
23.4965,3064
23.5183,2956
23.54,3062
23.5617,2927
23.5835,3045
23.6052,3051
23.6269,2941
23.6487,3053
23.6704,3096
23.6921,3081
23.7139,2980
23.7356,3107
23.7573,3011
23.7791,3001
23.8008,2954
23.8225,3021
23.8443,2981
23.866,3104
23.8877,3081
23.9095,3135
23.9312,3030
23.9529,3194
23.9747,3152
23.9964,3152
24.0181,3195
24.0399,3056
24.0616,3006
24.0833,2985
24.1051,3020
24.1268,3029
24.1485,3027
24.1703,2935
24.192,2986
24.2137,2968
24.2355,2866
24.2572,2991
24.2789,2952
24.3007,2924
24.3224,2933
24.3441,2967
24.3659,2899
24.3876,2918
24.4093,2978
24.4311,2825
24.4528,2938
24.4745,2924
24.4963,2873
24.518,2964
24.5397,3002
24.5615,2983
24.5832,2925
24.6049,2909
24.6266,2942
24.6484,2852
24.6701,2864
24.6918,2920
24.7136,2975
24.7353,2971
24.757,2885
24.7788,2878
24.8005,2867
24.8222,2906
24.844,2941
24.8657,2863
24.8874,2897
24.9092,2811
24.9309,2933
24.9526,2795
24.9744,2807
24.9961,2891
25.0178,2842
25.0396,2817
25.0613,2868
25.083,2925
25.1048,2829
25.1265,2910
25.1482,2928
25.17,2930
25.1917,2810
25.2134,2818
25.2352,2947
25.2569,2788
25.2786,2868
25.3004,2892
25.3221,2931
25.3438,2950
25.3656,2849
25.3873,2855
25.409,3014
25.4308,2850
25.4525,2798
25.4742,2899
25.496,2830
25.5177,2814
25.5394,2936
25.5612,2907
25.5829,2901
25.6046,2910
25.6264,2891
25.6481,2912
25.6698,2920
25.6916,2880
25.7133,2863
25.735,3081
25.7568,2893
25.7785,2806
25.8002,2977
25.822,3026
25.8437,3014
25.8654,2898
25.8872,3033
25.9089,2913
25.9306,2850
25.9524,2984
25.9741,2887
25.9958,3017
26.0176,2973
26.0393,2904
26.061,2994
26.0828,2983
26.1045,2984
26.1262,2986
26.148,3048
26.1697,3069
26.1914,2983
26.2131,3004
26.2349,2961
26.2566,2922
26.2783,2936
26.3001,2872
26.3218,3000
26.3435,3040
26.3653,2956
26.387,2949
26.4087,3054
26.4305,2893
26.4522,2990
26.4739,3061
26.4957,3047
26.5174,3069
26.5391,3092
26.5609,2996
26.5826,3090
26.6043,3036
26.6261,3085
26.6478,2960
26.6695,3068
26.6913,3087
26.713,3019
26.7347,3155
26.7565,3118
26.7782,3224
26.7999,3135
26.8217,3186
26.8434,3173
26.8651,3210
26.8869,3189
26.9086,3179
26.9303,3157
26.9521,3192
26.9738,3260
26.9955,3227
27.0173,3277
27.039,3316
27.0607,3351
27.0825,3235
27.1042,3339
27.1259,3303
27.1477,3370
27.1694,3292
27.1911,3348
27.2129,3469
27.2346,3409
27.2563,3460
27.2781,3429
27.2998,3506
27.3215,3497
27.3433,3565
27.365,3539
27.3867,3456
27.4085,3591
27.4302,3542
27.4519,3588
27.4737,3683
27.4954,3709
27.5171,3623
27.5389,3680
27.5606,3615
27.5823,3857
27.6041,3842
27.6258,3866
27.6475,4008
27.6693,3860
27.691,3995
27.7127,3867
27.7345,4041
27.7562,4117
27.7779,4309
27.7996,4323
27.8214,4392
27.8431,4426
27.8648,4421
27.8866,4442
27.9083,4645
27.93,4682
27.9518,4819
27.9735,4733
27.9952,4880
28.017,5107
28.0387,5257
28.0604,5224
28.0822,5539
28.1039,5385
28.1256,5821
28.1474,6005
28.1691,5892
28.1908,6476
28.2126,6463
28.2343,6718
28.256,6912
28.2778,7218
28.2995,7622
28.3212,7799
28.343,8365
28.3647,8766
28.3864,9230
28.4082,9853
28.4299,10331
28.4516,11250
28.4734,11931
28.4951,12631
28.5168,13699
28.5386,15046
28.5603,16306
28.582,17664
28.6038,18884
28.6255,19843
28.6472,21289
28.669,21880
28.6907,22204
28.7124,21705
28.7342,20771
28.7559,19972
28.7776,18923
28.7994,17817
28.8211,16729
28.8428,15665
28.8646,14483
28.8863,13770
28.908,12965
28.9298,12203
28.9515,11853
28.9732,11144
28.995,10773
29.0167,10425
29.0384,10182
29.0602,9726
29.0819,9349
29.1036,9095
29.1254,9095
29.1471,8925
29.1688,8737
29.1906,8134
29.2123,8052
29.234,7921
29.2558,7923
29.2775,7757
29.2992,7539
29.321,7346
29.3427,7243
29.3644,6995
29.3861,6841
29.4079,6998
29.4296,6830
29.4513,6586
29.4731,6703
29.4948,6595
29.5165,6495
29.5383,6389
29.56,6303
29.5817,6306
29.6035,6145
29.6252,6147
29.6469,6073
29.6687,5985
29.6904,6059
29.7121,6092
29.7339,5775
29.7556,5698
29.7773,5866
29.7991,5603
29.8208,5866
29.8425,5591
29.8643,5588
29.886,5687
29.9077,5747
29.9295,5531
29.9512,5417
29.9729,5435
29.9947,5491