File: clay-plate-XRD-S2-2022/ENVT4461 S-13 Mg+Gly EY.csv
"Angle","Counts"
3.00243,26249
3.02417,25390
3.0459,24832
3.06763,24223
3.08936,23515
3.1111,22996
3.13283,22933
3.15456,22444
3.1763,21993
3.19803,21746
3.21976,21129
3.24149,20693
3.26323,20219
3.28496,19759
3.30669,19556
3.32843,19073
3.35016,18933
3.37189,18557
3.39363,18319
3.41536,17966
3.43709,17395
3.45882,17275
3.48056,17151
3.50229,16672
3.52402,16430
3.54576,16006
3.56749,16001
3.58922,15874
3.61095,15436
3.63269,15270
3.65442,15218
3.67615,14688
3.69789,14447
3.71962,14441
3.74135,13845
3.76308,13857
3.78482,13460
3.80655,13416
3.82828,13185
3.85002,13126
3.87175,12981
3.89348,12854
3.91521,12453
3.93695,12332
3.95868,12277
3.98041,11907
4.00215,11953
4.02388,11740
4.04561,11559
4.06734,11606
4.08908,11439
4.11081,11299
4.13254,11130
4.15428,10939
4.17601,10778
4.19774,10514
4.21947,10594
4.24121,10453
4.26294,10305
4.28467,10245
4.30641,10190
4.32814,10147
4.34987,10232
4.3716,9720
4.39334,9797
4.41507,9574
4.4368,9591
4.45854,9537
4.48027,9471
4.502,9295
4.52373,9297
4.54547,9226
4.5672,9027
4.58893,9040
4.61067,9049
4.6324,8935
4.65413,8923
4.67586,8861
4.6976,8795
4.71933,8728
4.74106,8688
4.7628,8855
4.78453,8576
4.80626,8438
4.828,8627
4.84973,8384
4.87146,8427
4.89319,8453
4.91493,8515
4.93666,8440
4.95839,8258
4.98013,8366
5.00186,8297
5.02359,8291
5.04532,8335
5.06706,8180
5.08879,8151
5.11052,7998
5.13226,8189
5.15399,8134
5.17572,8151
5.19745,8078
5.21919,8060
5.24092,8031
5.26265,8002
5.28439,7967
5.30612,8128
5.32785,8153
5.34958,7932
5.37132,7906
5.39305,7921
5.41478,8044
5.43652,8030
5.45825,7957
5.47998,8144
5.50171,7842
5.52345,7828
5.54518,7856
5.56691,8001
5.58865,8114
5.61038,8105
5.63211,7994
5.65384,7977
5.67558,7969
5.69731,7885
5.71904,8014
5.74078,7967
5.76251,8039
5.78424,8016
5.80597,8007
5.82771,7909
5.84944,8004
5.87117,8036
5.89291,8005
5.91464,8050
5.93637,8181
5.9581,8143
5.97984,8108
6.00157,8016
6.0233,8133
6.04504,8044
6.06677,8157
6.0885,8099
6.11024,8181
6.13197,8183
6.1537,8137
6.17543,8284
6.19717,8111
6.2189,8285
6.24063,8313
6.26237,8394
6.2841,8172
6.30583,8261
6.32756,8312
6.3493,8226
6.37103,8175
6.39276,8043
6.4145,8277
6.43623,8451
6.45796,8403
6.47969,8114
6.50143,8232
6.52316,8270
6.54489,8281
6.56663,8339
6.58836,8152
6.61009,8304
6.63182,8197
6.65356,8216
6.67529,8132
6.69702,8323
6.71876,8315
6.74049,8205
6.76222,8218
6.78395,8170
6.80569,8103
6.82742,8144
6.84915,8173
6.87089,8108
6.89262,8244
6.91435,8032
6.93608,8049
6.95782,8290
6.97955,8054
7.00128,8023
7.02302,8000
7.04475,7980
7.06648,8130
7.08821,7735
7.10995,8079
7.13168,7711
7.15341,7927
7.17515,8124
7.19688,7542
7.21861,7663
7.24034,7756
7.26208,7717
7.28381,7852
7.30554,7781
7.32728,7648
7.34901,7671
7.37074,7722
7.39247,7565
7.41421,7573
7.43594,7543
7.45767,7720
7.47941,7476
7.50114,7723
7.52287,7250
7.54461,7328
7.56634,7488
7.58807,7276
7.6098,7308
7.63154,7354
7.65327,7459
7.675,7273
7.69674,7264
7.71847,7185
7.7402,7133
7.76193,7298
7.78367,7119
7.8054,7135
7.82713,7120
7.84887,7022
7.8706,7054
7.89233,6997
7.91406,6997
7.9358,7046
7.95753,7032
7.97926,6956
8.001,6940
8.02273,6896
8.04446,6924
8.06619,6931
8.08793,6786
8.10966,6883
8.13139,6713
8.15313,6952
8.17486,6725
8.19659,6828
8.21832,6769
8.24006,6793
8.26179,6677
8.28352,6739
8.30526,6653
8.32699,6688
8.34872,6664
8.37045,6667
8.39219,6440
8.41392,6510
8.43565,6495
8.45739,6577
8.47912,6414
8.50085,6634
8.52258,6611
8.54432,6449
8.56605,6491
8.58778,6514
8.60952,6571
8.63125,6558
8.65298,6546
8.67471,6524
8.69645,6554
8.71818,6439
8.73991,6420
8.76165,6445
8.78338,6420
8.80511,6301
8.82685,6304
8.84858,6199
8.87031,6424
8.89204,6307
8.91378,6344
8.93551,6252
8.95724,6296
8.97898,6425
9.00071,6184
9.02244,6300
9.04417,6401
9.06591,6352
9.08764,6370
9.10937,6236
9.13111,6382
9.15284,6281
9.17457,6236
9.1963,6421
9.21804,6415
9.23977,6237
9.2615,6282
9.28324,6363
9.30497,6443
9.3267,6255
9.34843,6369
9.37017,6498
9.3919,6382
9.41363,6188
9.43537,6433
9.4571,6335
9.47883,6494
9.50056,6373
9.5223,6493
9.54403,6592
9.56576,6500
9.5875,6518
9.60923,6680
9.63096,6622
9.65269,6767
9.67443,6892
9.69616,6836
9.71789,6615
9.73963,6875
9.76136,6876
9.78309,7049
9.80482,6906
9.82656,7194
9.84829,7270
9.87002,7060
9.89176,7262
9.91349,7059
9.93522,6847
9.95695,6979
9.97869,6566
10.0004,6633
10.0222,6524
10.0439,6517
10.0656,6455
10.0874,6046
10.1091,6185
10.1308,6186
10.1526,6121
10.1743,6149
10.196,6213
10.2177,6110
10.2395,6114
10.2612,5947
10.2829,5939
10.3047,6089
10.3264,5860
10.3481,5845
10.3699,5848
10.3916,5880
10.4133,5853
10.4351,5982
10.4568,5949
10.4785,5862
10.5003,5890
10.522,5948
10.5437,5816
10.5655,5820
10.5872,5893
10.6089,5858
10.6307,5827
10.6524,5947
10.6741,5818
10.6959,5664
10.7176,5836
10.7393,5825
10.7611,5692
10.7828,5768
10.8045,5795
10.8263,5678
10.848,5727
10.8697,5578
10.8915,5668
10.9132,5648
10.9349,5588
10.9567,5642
10.9784,5559
11.0001,5746
11.0219,5588
11.0436,5612
11.0653,5498
11.0871,5662
11.1088,5597
11.1305,5613
11.1523,5628
11.174,5598
11.1957,5537
11.2175,5550
11.2392,5617
11.2609,5624
11.2827,5551
11.3044,5660
11.3261,5500
11.3479,5643
11.3696,5597
11.3913,5592
11.4131,5392
11.4348,5599
11.4565,5741
11.4783,5421
11.5,5702
11.5217,5524
11.5435,5679
11.5652,5610
11.5869,5609
11.6087,5492
11.6304,5767
11.6521,5680
11.6739,5648
11.6956,5546
11.7173,5788
11.7391,5705
11.7608,5658
11.7825,5565
11.8042,5578
11.826,5681
11.8477,5750
11.8694,5736
11.8912,5703
11.9129,5915
11.9346,5702
11.9564,5743
11.9781,5797
11.9998,5814
12.0216,5875
12.0433,5681
12.065,5674
12.0868,5844
12.1085,5908
12.1302,5854
12.152,5820
12.1737,5874
12.1954,5922
12.2172,5889
12.2389,5838
12.2606,5931
12.2824,5893
12.3041,5982
12.3258,5816
12.3476,6017
12.3693,6126
12.391,6011
12.4128,6014
12.4345,6077
12.4562,6133
12.478,6109
12.4997,6257
12.5214,6231
12.5432,6266
12.5649,6268
12.5866,6523
12.6084,6435
12.6301,6286
12.6518,6285
12.6736,6453
12.6953,6501
12.717,6360
12.7388,6568
12.7605,6527
12.7822,6626
12.804,6607
12.8257,6708
12.8474,6700
12.8692,6697
12.8909,6821
12.9126,6962
12.9344,7050
12.9561,6930
12.9778,7045
12.9996,7269
13.0213,7127
13.043,7367
13.0648,7347
13.0865,7437
13.1082,7602
13.13,7646
13.1517,7809
13.1734,7852
13.1952,8044
13.2169,8160
13.2386,8346
13.2604,8520
13.2821,8887
13.3038,8789
13.3256,8982
13.3473,9165
13.369,9318
13.3907,9669
13.4125,10143
13.4342,10318
13.4559,10576
13.4777,11118
13.4994,11318
13.5211,11717
13.5429,12204
13.5646,12654
13.5863,13344
13.6081,13938
13.6298,14335
13.6515,15140
13.6733,16357
13.695,17119
13.7167,18179
13.7385,18830
13.7602,20114
13.7819,21424
13.8037,22809
13.8254,23804
13.8471,25053
13.8689,26381
13.8906,27287
13.9123,28898
13.9341,29320
13.9558,29768
13.9775,29945
13.9993,29283
14.021,28157
14.0427,26083
14.0645,23559
14.0862,21213
14.1079,18549
14.1297,16852
14.1514,15086
14.1731,13638
14.1949,12561
14.2166,11280
14.2383,10415
14.2601,9852
14.2818,9283
14.3035,8638
14.3253,8150
14.347,7758
14.3687,7443
14.3905,7131
14.4122,6822
14.4339,6615
14.4557,6362
14.4774,6122
14.4991,6012
14.5209,5771
14.5426,5550
14.5643,5636
14.5861,5389
14.6078,5234
14.6295,5139
14.6513,4945
14.673,4940
14.6947,4797
14.7165,4871
14.7382,4693
14.7599,4725
14.7817,4627
14.8034,4515
14.8251,4323
14.8469,4375
14.8686,4436
14.8903,4300
14.9121,4253
14.9338,4255
14.9555,4260
14.9773,4173
14.999,4063
15.0207,3963
15.0424,4012
15.0642,3882
15.0859,4085
15.1076,3851
15.1294,3885
15.1511,3842
15.1728,3730
15.1946,3634
15.2163,3817
15.238,3732
15.2598,3725
15.2815,3563
15.3032,3615
15.325,3587
15.3467,3450
15.3684,3532
15.3902,3584
15.4119,3490
15.4336,3440
15.4554,3539
15.4771,3485
15.4988,3479
15.5206,3395
15.5423,3353
15.564,3366
15.5858,3336
15.6075,3287
15.6292,3353
15.651,3397
15.6727,3432
15.6944,3338
15.7162,3178
15.7379,3275
15.7596,3315
15.7814,3251
15.8031,3257
15.8248,3196
15.8466,3137
15.8683,3244
15.89,3204
15.9118,3210
15.9335,3035
15.9552,3204
15.977,3114
15.9987,3142
16.0204,3166
16.0422,3163
16.0639,3100
16.0856,3086
16.1074,3087
16.1291,3127
16.1508,3183
16.1726,3040
16.1943,2993
16.216,3082
16.2378,3135
16.2595,2972
16.2812,3045
16.303,2915
16.3247,2967
16.3464,2987
16.3682,3018
16.3899,3033
16.4116,2942
16.4334,2944
16.4551,2898
16.4768,2968
16.4986,2910
16.5203,2895
16.542,2969
16.5638,2829
16.5855,2836
16.6072,2929
16.6289,2918
16.6507,2923
16.6724,2971
16.6941,2879
16.7159,2873
16.7376,2832
16.7593,2863
16.7811,2786
16.8028,2821
16.8245,2856
16.8463,2803
16.868,2683
16.8897,2739
16.9115,2798
16.9332,2850
16.9549,2858
16.9767,2812
16.9984,2791
17.0201,2737
17.0419,2792
17.0636,2827
17.0853,2852
17.1071,2766
17.1288,2828
17.1505,2744
17.1723,2728
17.194,2665
17.2157,2652
17.2375,2713
17.2592,2805
17.2809,2763
17.3027,2782
17.3244,2616
17.3461,2662
17.3679,2691
17.3896,2712
17.4113,2627
17.4331,2698
17.4548,2646
17.4765,2778
17.4983,2696
17.52,2699
17.5417,2695
17.5635,2670
17.5852,2730
17.6069,2672
17.6287,2588
17.6504,2579
17.6721,2661
17.6939,2622
17.7156,2757
17.7373,2656
17.7591,2679
17.7808,2624
17.8025,2684
17.8243,2643
17.846,2609
17.8677,2711
17.8895,2656
17.9112,2725
17.9329,2672
17.9547,2604
17.9764,2633
17.9981,2637
18.0199,2606
18.0416,2639
18.0633,2656
18.0851,2654
18.1068,2593
18.1285,2544
18.1503,2543
18.172,2626
18.1937,2568
18.2154,2562
18.2372,2586
18.2589,2540
18.2806,2567
18.3024,2539
18.3241,2579
18.3458,2630
18.3676,2710
18.3893,2601
18.411,2633
18.4328,2487
18.4545,2626
18.4762,2658
18.498,2707
18.5197,2586
18.5414,2589
18.5632,2514
18.5849,2574
18.6066,2704
18.6284,2579
18.6501,2634
18.6718,2559
18.6936,2618
18.7153,2597
18.737,2552
18.7588,2657
18.7805,2602
18.8022,2515
18.824,2498
18.8457,2547
18.8674,2654
18.8892,2556
18.9109,2528
18.9326,2570
18.9544,2638
18.9761,2437
18.9978,2528
19.0196,2611
19.0413,2539
19.063,2589
19.0848,2488
19.1065,2486
19.1282,2555
19.15,2513
19.1717,2579
19.1934,2606
19.2152,2604
19.2369,2671
19.2586,2494
19.2804,2540
19.3021,2504
19.3238,2492
19.3456,2600
19.3673,2624
19.389,2518
19.4108,2535
19.4325,2436
19.4542,2632
19.476,2604
19.4977,2604
19.5194,2581
19.5412,2536
19.5629,2475
19.5846,2609
19.6064,2553
19.6281,2476
19.6498,2608
19.6716,2699
19.6933,2633
19.715,2675
19.7368,2689
19.7585,2519
19.7802,2549
19.8019,2578
19.8237,2587
19.8454,2710
19.8671,2645
19.8889,2618
19.9106,2682
19.9323,2653
19.9541,2785
19.9758,2792
19.9975,2660
20.0193,2780
20.041,2705
20.0627,2661
20.0845,2847
20.1062,2841
20.1279,2870
20.1497,2880
20.1714,2842
20.1931,2894
20.2149,2926
20.2366,2999
20.2583,2999
20.2801,2941
20.3018,2967
20.3235,3013
20.3453,3003
20.367,2895
20.3887,2888
20.4105,2868
20.4322,2942
20.4539,2886
20.4757,2802
20.4974,2730
20.5191,2715
20.5409,2730
20.5626,2724
20.5843,2845
20.6061,2808
20.6278,2712
20.6495,2805
20.6713,2763
20.693,2736
20.7147,2758
20.7365,2795
20.7582,2768
20.7799,2759
20.8017,2676
20.8234,2748
20.8451,2919
20.8669,2978
20.8886,2957
20.9103,2948
20.9321,2938
20.9538,2943
20.9755,2736
20.9973,2777
21.019,2724
21.0407,2695
21.0625,2726
21.0842,2597
21.1059,2583
21.1277,2666
21.1494,2612
21.1711,2638
21.1929,2622
21.2146,2599
21.2363,2577
21.2581,2535
21.2798,2607
21.3015,2576
21.3233,2540
21.345,2554
21.3667,2494
21.3884,2611
21.4102,2546
21.4319,2587
21.4536,2473
21.4754,2584
21.4971,2506
21.5188,2642
21.5406,2574
21.5623,2573
21.584,2585
21.6058,2522
21.6275,2570
21.6492,2603
21.671,2499
21.6927,2459
21.7144,2519
21.7362,2419
21.7579,2595
21.7796,2529
21.8014,2486
21.8231,2494
21.8448,2454
21.8666,2496
21.8883,2525
21.91,2575
21.9318,2415
21.9535,2564
21.9752,2564
21.997,2556
22.0187,2574
22.0404,2553
22.0622,2554
22.0839,2587
22.1056,2619
22.1274,2600
22.1491,2547
22.1708,2624
22.1926,2646
22.2143,2632
22.236,2635
22.2578,2651
22.2795,2637
22.3012,2726
22.323,2702
22.3447,2797
22.3664,2761
22.3882,2814
22.4099,2835
22.4316,2896
22.4534,2920
22.4751,2851
22.4968,2880
22.5186,3016
22.5403,3114
22.562,3075
22.5838,3124
22.6055,3214
22.6272,3180
22.649,3392
22.6707,3377
22.6924,3323
22.7142,3444
22.7359,3523
22.7576,3511
22.7794,3567
22.8011,3421
22.8228,3399
22.8446,3472
22.8663,3509
22.888,3368
22.9098,3451
22.9315,3416
22.9532,3349
22.9749,3290
22.9967,3437
23.0184,3372
23.0401,3374
23.0619,3227
23.0836,3314
23.1053,3211
23.1271,3276
23.1488,3368
23.1705,3265
23.1923,3271
23.214,3374
23.2357,3376
23.2575,3375
23.2792,3280
23.3009,3291
23.3227,3296
23.3444,3181
23.3661,3339
23.3879,3237
23.4096,3270
23.4313,3270
23.4531,3273
23.4748,3107
23.4965,3260
23.5183,3220
23.54,3291
23.5617,3350
23.5835,3291
23.6052,3209
23.6269,3324
23.6487,3235
23.6704,3225
23.6921,3250
23.7139,3234
23.7356,3245
23.7573,3255
23.7791,3457
23.8008,3353
23.8225,3438
23.8443,3480
23.866,3458
23.8877,3592
23.9095,3514
23.9312,3408
23.9529,3367
23.9747,3430
23.9964,3393
24.0181,3300
24.0399,3364
24.0616,3281
24.0833,3384
24.1051,3329
24.1268,3373
24.1485,3327
24.1703,3383
24.192,3351
24.2137,3324
24.2355,3337
24.2572,3284
24.2789,3456
24.3007,3471
24.3224,3421
24.3441,3343
24.3659,3359
24.3876,3400
24.4093,3262
24.4311,3358
24.4528,3352
24.4745,3303
24.4963,3344
24.518,3425
24.5397,3326
24.5615,3262
24.5832,3303
24.6049,3249
24.6266,3276
24.6484,3119
24.6701,3137
24.6918,3212
24.7136,3190
24.7353,3156
24.757,3183
24.7788,3115
24.8005,3250
24.8222,3226
24.844,3162
24.8657,3121
24.8874,3181
24.9092,3128
24.9309,3160
24.9526,3262
24.9744,3191
24.9961,3112
25.0178,3165
25.0396,3198
25.0613,3122
25.083,3127
25.1048,3218
25.1265,3285
25.1482,3260
25.17,3189
25.1917,3200
25.2134,3080
25.2352,3132
25.2569,3052
25.2786,3104
25.3004,3084
25.3221,3142
25.3438,3030
25.3656,3037
25.3873,3050
25.409,3005
25.4308,2932
25.4525,2921
25.4742,2981
25.496,3017
25.5177,3038
25.5394,3139
25.5612,3109
25.5829,2964
25.6046,3094
25.6264,2992
25.6481,3029
25.6698,2981
25.6916,3024
25.7133,3015
25.735,3049
25.7568,2962
25.7785,3080
25.8002,3180
25.822,3064
25.8437,3079
25.8654,3129
25.8872,3146
25.9089,2994
25.9306,3065
25.9524,3025
25.9741,2991
25.9958,3032
26.0176,3045
26.0393,3067
26.061,2999
26.0828,3120
26.1045,3145
26.1262,3005
26.148,3050
26.1697,3065
26.1914,3127
26.2131,3047
26.2349,3044
26.2566,3085
26.2783,3035
26.3001,3112
26.3218,3212
26.3435,3166
26.3653,3051
26.387,3019
26.4087,3068
26.4305,3114
26.4522,3138
26.4739,3010
26.4957,3107
26.5174,3111
26.5391,3114
26.5609,3123
26.5826,3064
26.6043,3094
26.6261,3088
26.6478,3121
26.6695,3188
26.6913,3134
26.713,3163
26.7347,3085
26.7565,3184
26.7782,3138
26.7999,3168
26.8217,3170
26.8434,3305
26.8651,3205
26.8869,3218
26.9086,3227
26.9303,3289
26.9521,3253
26.9738,3323
26.9955,3348
27.0173,3396
27.039,3300
27.0607,3308
27.0825,3354
27.1042,3488
27.1259,3384
27.1477,3352
27.1694,3328
27.1911,3352
27.2129,3420
27.2346,3449
27.2563,3489
27.2781,3427
27.2998,3451
27.3215,3557
27.3433,3606
27.365,3548
27.3867,3546
27.4085,3592
27.4302,3558
27.4519,3542
27.4737,3704
27.4954,3817
27.5171,3766
27.5389,3780
27.5606,3937
27.5823,3873
27.6041,3922
27.6258,3975
27.6475,3848
27.6693,3999
27.691,4025
27.7127,4043
27.7345,4175
27.7562,4147
27.7779,4438
27.7996,4287
27.8214,4456
27.8431,4538
27.8648,4467
27.8866,4605
27.9083,4754
27.93,4863
27.9518,4863
27.9735,4998
27.9952,5228
28.017,5295
28.0387,5490
28.0604,5476
28.0822,5705
28.1039,6013
28.1256,6117
28.1474,6312
28.1691,6479
28.1908,6695
28.2126,7112
28.2343,7089
28.256,7588
28.2778,8060
28.2995,8572
28.3212,8775
28.343,9667
28.3647,9896
28.3864,10869
28.4082,11652
28.4299,12774
28.4516,13783
28.4734,15139
28.4951,16499
28.5168,17924
28.5386,19327
28.5603,20602
28.582,21848
28.6038,22163
28.6255,22811
28.6472,22012
28.669,21446
28.6907,19944
28.7124,18403
28.7342,16803
28.7559,15574
28.7776,14136
28.7994,13228
28.8211,12165
28.8428,11373
28.8646,10746
28.8863,10302
28.908,9680
28.9298,9272
28.9515,9099
28.9732,8800
28.995,8364
29.0167,8153
29.0384,8133
29.0602,7753
29.0819,7409
29.1036,7360
29.1254,7063
29.1471,6969
29.1688,6620
29.1906,6546
29.2123,6453
29.234,6427
29.2558,6240
29.2775,5982
29.2992,5995
29.321,5891
29.3427,5817
29.3644,5666
29.3861,5687
29.4079,5501
29.4296,5505
29.4513,5313
29.4731,5206
29.4948,5370
29.5165,5269
29.5383,5167
29.56,4923
29.5817,5091
29.6035,4872
29.6252,4947
29.6469,4937
29.6687,4756
29.6904,4803
29.7121,4881
29.7339,4743
29.7556,4740
29.7773,4625
29.7991,4678
29.8208,4647
29.8425,4511
29.8643,4616
29.886,4570
29.9077,4572
29.9295,4498
29.9512,4461
29.9729,4541
29.9947,4454