File: clay-plate-XRD-S2-2022/ENVT4461 S-15 Mg.csv
"Angle","Counts"
3.00243,25451
3.02417,25482
3.0459,24424
3.06763,24141
3.08936,23815
3.1111,23110
3.13283,22775
3.15456,22500
3.1763,21998
3.19803,21414
3.21976,21510
3.24149,20831
3.26323,20813
3.28496,20205
3.30669,19997
3.32843,19541
3.35016,19267
3.37189,18856
3.39363,19170
3.41536,18669
3.43709,18310
3.45882,17694
3.48056,17643
3.50229,17384
3.52402,17300
3.54576,16769
3.56749,16624
3.58922,16412
3.61095,16033
3.63269,15936
3.65442,15758
3.67615,15563
3.69789,15462
3.71962,15184
3.74135,15069
3.76308,14754
3.78482,14828
3.80655,14391
3.82828,14009
3.85002,13837
3.87175,13705
3.89348,13739
3.91521,13274
3.93695,13467
3.95868,13228
3.98041,13255
4.00215,12922
4.02388,12749
4.04561,12650
4.06734,12417
4.08908,12443
4.11081,12491
4.13254,12043
4.15428,12085
4.17601,11839
4.19774,11723
4.21947,11819
4.24121,11707
4.26294,11487
4.28467,11392
4.30641,11216
4.32814,11269
4.34987,11176
4.3716,10934
4.39334,10857
4.41507,10821
4.4368,10545
4.45854,10710
4.48027,10738
4.502,10645
4.52373,10549
4.54547,10418
4.5672,10419
4.58893,10175
4.61067,10153
4.6324,10214
4.65413,10130
4.67586,9925
4.6976,9952
4.71933,9800
4.74106,10024
4.7628,9701
4.78453,9752
4.80626,9758
4.828,9967
4.84973,9641
4.87146,9482
4.89319,9498
4.91493,9511
4.93666,9588
4.95839,9459
4.98013,9559
5.00186,9444
5.02359,9241
5.04532,9357
5.06706,9284
5.08879,9210
5.11052,9251
5.13226,9111
5.15399,9096
5.17572,9155
5.19745,9025
5.21919,9058
5.24092,9013
5.26265,8985
5.28439,9025
5.30612,8883
5.32785,8958
5.34958,8817
5.37132,9081
5.39305,8913
5.41478,8761
5.43652,8878
5.45825,8817
5.47998,8847
5.50171,8689
5.52345,8705
5.54518,8744
5.56691,8845
5.58865,8650
5.61038,8715
5.63211,8859
5.65384,8516
5.67558,8595
5.69731,8664
5.71904,8844
5.74078,8697
5.76251,8820
5.78424,8482
5.80597,8689
5.82771,8665
5.84944,8413
5.87117,8658
5.89291,8587
5.91464,8584
5.93637,8485
5.9581,8546
5.97984,8771
6.00157,8330
6.0233,8533
6.04504,8451
6.06677,8378
6.0885,8473
6.11024,8369
6.13197,8328
6.1537,8508
6.17543,8415
6.19717,8552
6.2189,8521
6.24063,8575
6.26237,8325
6.2841,8520
6.30583,8398
6.32756,8361
6.3493,8572
6.37103,8395
6.39276,8260
6.4145,8457
6.43623,8488
6.45796,8237
6.47969,8316
6.50143,8439
6.52316,8194
6.54489,8135
6.56663,8246
6.58836,8310
6.61009,8310
6.63182,8090
6.65356,8322
6.67529,8107
6.69702,8183
6.71876,8167
6.74049,8251
6.76222,8205
6.78395,8033
6.80569,8284
6.82742,8056
6.84915,7991
6.87089,7954
6.89262,8002
6.91435,7904
6.93608,8065
6.95782,8109
6.97955,7946
7.00128,7993
7.02302,7952
7.04475,8051
7.06648,7975
7.08821,7809
7.10995,7768
7.13168,7761
7.15341,7806
7.17515,7621
7.19688,7722
7.21861,7823
7.24034,7773
7.26208,7624
7.28381,7696
7.30554,7685
7.32728,7578
7.34901,7557
7.37074,7591
7.39247,7565
7.41421,7588
7.43594,7459
7.45767,7591
7.47941,7485
7.50114,7501
7.52287,7499
7.54461,7564
7.56634,7344
7.58807,7502
7.6098,7422
7.63154,7438
7.65327,7190
7.675,7263
7.69674,7484
7.71847,7273
7.7402,7400
7.76193,7213
7.78367,7336
7.8054,7182
7.82713,7117
7.84887,7087
7.8706,7101
7.89233,7145
7.91406,7118
7.9358,7097
7.95753,7111
7.97926,7010
8.001,6983
8.02273,7135
8.04446,6966
8.06619,6977
8.08793,6976
8.10966,7083
8.13139,6908
8.15313,6872
8.17486,6782
8.19659,7159
8.21832,6874
8.24006,6875
8.26179,6928
8.28352,6876
8.30526,6992
8.32699,6856
8.34872,6728
8.37045,6879
8.39219,6770
8.41392,6801
8.43565,6790
8.45739,6957
8.47912,6870
8.50085,6731
8.52258,6832
8.54432,6714
8.56605,6892
8.58778,6748
8.60952,6723
8.63125,6696
8.65298,6791
8.67471,6707
8.69645,6759
8.71818,6704
8.73991,6748
8.76165,6629
8.78338,6756
8.80511,6721
8.82685,6761
8.84858,6580
8.87031,6640
8.89204,6693
8.91378,6622
8.93551,6665
8.95724,6633
8.97898,6537
9.00071,6511
9.02244,6666
9.04417,6618
9.06591,6624
9.08764,6716
9.10937,6647
9.13111,6667
9.15284,6769
9.17457,6677
9.1963,6612
9.21804,6702
9.23977,6667
9.2615,6672
9.28324,6710
9.30497,6760
9.3267,6759
9.34843,6821
9.37017,6765
9.3919,6786
9.41363,6724
9.43537,6884
9.4571,6725
9.47883,6959
9.50056,6831
9.5223,6711
9.54403,6820
9.56576,7035
9.5875,6750
9.60923,6735
9.63096,6889
9.65269,6956
9.67443,7082
9.69616,6895
9.71789,6987
9.73963,6842
9.76136,7096
9.78309,7087
9.80482,6971
9.82656,7215
9.84829,7255
9.87002,7203
9.89176,7175
9.91349,7131
9.93522,7046
9.95695,7227
9.97869,7063
10.0004,7128
10.0222,6969
10.0439,7065
10.0656,6867
10.0874,6793
10.1091,6781
10.1308,6701
10.1526,6581
10.1743,6800
10.196,6718
10.2177,6492
10.2395,6586
10.2612,6634
10.2829,6551
10.3047,6458
10.3264,6502
10.3481,6429
10.3699,6341
10.3916,6305
10.4133,6313
10.4351,6342
10.4568,6463
10.4785,6411
10.5003,6574
10.522,6341
10.5437,6370
10.5655,6147
10.5872,6315
10.6089,6245
10.6307,6202
10.6524,6184
10.6741,6304
10.6959,6315
10.7176,6217
10.7393,6031
10.7611,6200
10.7828,6028
10.8045,6181
10.8263,6006
10.848,6199
10.8697,6134
10.8915,6037
10.9132,5974
10.9349,6046
10.9567,6044
10.9784,6038
11.0001,6034
11.0219,5895
11.0436,6117
11.0653,6190
11.0871,6035
11.1088,5957
11.1305,5859
11.1523,5937
11.174,5893
11.1957,5886
11.2175,5955
11.2392,5995
11.2609,6063
11.2827,5941
11.3044,5845
11.3261,5988
11.3479,5816
11.3696,5959
11.3913,6082
11.4131,6017
11.4348,5850
11.4565,6037
11.4783,5987
11.5,5917
11.5217,5903
11.5435,5807
11.5652,5921
11.5869,5865
11.6087,5973
11.6304,5804
11.6521,5730
11.6739,5854
11.6956,5921
11.7173,5801
11.7391,5706
11.7608,5956
11.7825,5872
11.8042,5767
11.826,5910
11.8477,5842
11.8694,5858
11.8912,5968
11.9129,5815
11.9346,5893
11.9564,6019
11.9781,5958
11.9998,5835
12.0216,5876
12.0433,5940
12.065,5919
12.0868,5976
12.1085,5992
12.1302,6051
12.152,5972
12.1737,5952
12.1954,6064
12.2172,5942
12.2389,6158
12.2606,5910
12.2824,6030
12.3041,5971
12.3258,5870
12.3476,6067
12.3693,6005
12.391,5984
12.4128,6091
12.4345,5944
12.4562,6219
12.478,6146
12.4997,6139
12.5214,6069
12.5432,6223
12.5649,6208
12.5866,6045
12.6084,6153
12.6301,6241
12.6518,6289
12.6736,6227
12.6953,6294
12.717,6349
12.7388,6323
12.7605,6467
12.7822,6208
12.804,6291
12.8257,6465
12.8474,6379
12.8692,6538
12.8909,6474
12.9126,6507
12.9344,6526
12.9561,6446
12.9778,6644
12.9996,6654
13.0213,6616
13.043,6827
13.0648,6779
13.0865,6857
13.1082,6987
13.13,6955
13.1517,6977
13.1734,7237
13.1952,7107
13.2169,7127
13.2386,7193
13.2604,7410
13.2821,7567
13.3038,7667
13.3256,7537
13.3473,7707
13.369,7937
13.3907,8116
13.4125,8418
13.4342,8305
13.4559,8669
13.4777,8871
13.4994,8996
13.5211,8975
13.5429,9217
13.5646,9537
13.5863,9966
13.6081,10200
13.6298,10536
13.6515,10863
13.6733,11260
13.695,11856
13.7167,12372
13.7385,12481
13.7602,13179
13.7819,13825
13.8037,14338
13.8254,14944
13.8471,15622
13.8689,16427
13.8906,17035
13.9123,17715
13.9341,18310
13.9558,18959
13.9775,19359
13.9993,19620
14.021,19756
14.0427,19183
14.0645,18606
14.0862,17867
14.1079,16789
14.1297,15557
14.1514,14019
14.1731,12969
14.1949,11743
14.2166,10696
14.2383,9863
14.2601,9240
14.2818,8758
14.3035,8200
14.3253,7532
14.347,7037
14.3687,6928
14.3905,6480
14.4122,6243
14.4339,6027
14.4557,5948
14.4774,5645
14.4991,5556
14.5209,5407
14.5426,5244
14.5643,5155
14.5861,5119
14.6078,4807
14.6295,4669
14.6513,4707
14.673,4478
14.6947,4427
14.7165,4361
14.7382,4523
14.7599,4274
14.7817,4198
14.8034,4117
14.8251,4123
14.8469,4106
14.8686,4109
14.8903,4002
14.9121,3911
14.9338,3923
14.9555,3886
14.9773,3826
14.999,3716
15.0207,3890
15.0424,3657
15.0642,3639
15.0859,3554
15.1076,3560
15.1294,3528
15.1511,3661
15.1728,3423
15.1946,3465
15.2163,3515
15.238,3508
15.2598,3390
15.2815,3375
15.3032,3177
15.325,3411
15.3467,3324
15.3684,3218
15.3902,3199
15.4119,3385
15.4336,3184
15.4554,3341
15.4771,3245
15.4988,3178
15.5206,3120
15.5423,3105
15.564,3186
15.5858,3155
15.6075,3175
15.6292,3040
15.651,3221
15.6727,3086
15.6944,3136
15.7162,3083
15.7379,3145
15.7596,2956
15.7814,3045
15.8031,2916
15.8248,3024
15.8466,3030
15.8683,3065
15.89,2944
15.9118,2819
15.9335,3054
15.9552,3022
15.977,2928
15.9987,2963
16.0204,2862
16.0422,2943
16.0639,2832
16.0856,2859
16.1074,2823
16.1291,2842
16.1508,2795
16.1726,2826
16.1943,2741
16.216,2752
16.2378,2831
16.2595,2785
16.2812,2843
16.303,2707
16.3247,2798
16.3464,2795
16.3682,2847
16.3899,2817
16.4116,2806
16.4334,2748
16.4551,2772
16.4768,2865
16.4986,2661
16.5203,2736
16.542,2668
16.5638,2748
16.5855,2824
16.6072,2775
16.6289,2691
16.6507,2743
16.6724,2667
16.6941,2644
16.7159,2640
16.7376,2700
16.7593,2619
16.7811,2595
16.8028,2582
16.8245,2650
16.8463,2684
16.868,2656
16.8897,2669
16.9115,2675
16.9332,2616
16.9549,2612
16.9767,2560
16.9984,2583
17.0201,2537
17.0419,2679
17.0636,2526
17.0853,2556
17.1071,2644
17.1288,2556
17.1505,2519
17.1723,2664
17.194,2564
17.2157,2587
17.2375,2570
17.2592,2522
17.2809,2462
17.3027,2590
17.3244,2565
17.3461,2561
17.3679,2485
17.3896,2574
17.4113,2483
17.4331,2582
17.4548,2571
17.4765,2569
17.4983,2486
17.52,2509
17.5417,2482
17.5635,2560
17.5852,2600
17.6069,2545
17.6287,2540
17.6504,2454
17.6721,2478
17.6939,2387
17.7156,2410
17.7373,2497
17.7591,2498
17.7808,2493
17.8025,2527
17.8243,2607
17.846,2407
17.8677,2482
17.8895,2473
17.9112,2416
17.9329,2550
17.9547,2456
17.9764,2502
17.9981,2362
18.0199,2408
18.0416,2504
18.0633,2475
18.0851,2314
18.1068,2479
18.1285,2420
18.1503,2366
18.172,2414
18.1937,2403
18.2154,2469
18.2372,2439
18.2589,2360
18.2806,2356
18.3024,2391
18.3241,2380
18.3458,2495
18.3676,2462
18.3893,2452
18.411,2576
18.4328,2323
18.4545,2469
18.4762,2459
18.498,2416
18.5197,2435
18.5414,2353
18.5632,2454
18.5849,2430
18.6066,2449
18.6284,2449
18.6501,2380
18.6718,2288
18.6936,2384
18.7153,2382
18.737,2453
18.7588,2393
18.7805,2371
18.8022,2540
18.824,2422
18.8457,2384
18.8674,2291
18.8892,2348
18.9109,2343
18.9326,2447
18.9544,2483
18.9761,2459
18.9978,2328
19.0196,2416
19.0413,2343
19.063,2372
19.0848,2420
19.1065,2353
19.1282,2349
19.15,2378
19.1717,2361
19.1934,2299
19.2152,2485
19.2369,2377
19.2586,2296
19.2804,2389
19.3021,2384
19.3238,2351
19.3456,2386
19.3673,2311
19.389,2320
19.4108,2357
19.4325,2453
19.4542,2414
19.476,2356
19.4977,2380
19.5194,2346
19.5412,2419
19.5629,2386
19.5846,2345
19.6064,2295
19.6281,2398
19.6498,2337
19.6716,2354
19.6933,2372
19.715,2310
19.7368,2374
19.7585,2326
19.7802,2412
19.8019,2323
19.8237,2429
19.8454,2420
19.8671,2371
19.8889,2339
19.9106,2379
19.9323,2447
19.9541,2334
19.9758,2415
19.9975,2457
20.0193,2443
20.041,2340
20.0627,2471
20.0845,2408
20.1062,2546
20.1279,2463
20.1497,2427
20.1714,2461
20.1931,2478
20.2149,2496
20.2366,2457
20.2583,2531
20.2801,2508
20.3018,2543
20.3235,2571
20.3453,2608
20.367,2525
20.3887,2515
20.4105,2484
20.4322,2438
20.4539,2421
20.4757,2389
20.4974,2431
20.5191,2386
20.5409,2451
20.5626,2447
20.5843,2445
20.6061,2367
20.6278,2370
20.6495,2389
20.6713,2398
20.693,2408
20.7147,2398
20.7365,2377
20.7582,2238
20.7799,2408
20.8017,2362
20.8234,2424
20.8451,2451
20.8669,2353
20.8886,2489
20.9103,2419
20.9321,2456
20.9538,2363
20.9755,2406
20.9973,2483
21.019,2397
21.0407,2421
21.0625,2358
21.0842,2261
21.1059,2283
21.1277,2287
21.1494,2244
21.1711,2289
21.1929,2218
21.2146,2265
21.2363,2334
21.2581,2296
21.2798,2289
21.3015,2319
21.3233,2303
21.345,2362
21.3667,2191
21.3884,2233
21.4102,2351
21.4319,2265
21.4536,2217
21.4754,2184
21.4971,2240
21.5188,2178
21.5406,2408
21.5623,2276
21.584,2281
21.6058,2302
21.6275,2175
21.6492,2245
21.671,2285
21.6927,2214
21.7144,2259
21.7362,2288
21.7579,2216
21.7796,2257
21.8014,2255
21.8231,2306
21.8448,2226
21.8666,2160
21.8883,2309
21.91,2320
21.9318,2278
21.9535,2295
21.9752,2260
21.997,2289
22.0187,2260
22.0404,2289
22.0622,2369
22.0839,2219
22.1056,2209
22.1274,2353
22.1491,2329
22.1708,2293
22.1926,2267
22.2143,2428
22.236,2486
22.2578,2353
22.2795,2318
22.3012,2438
22.323,2448
22.3447,2465
22.3664,2425
22.3882,2575
22.4099,2436
22.4316,2518
22.4534,2623
22.4751,2665
22.4968,2554
22.5186,2619
22.5403,2731
22.562,2728
22.5838,2815
22.6055,2798
22.6272,2949
22.649,2958
22.6707,2943
22.6924,3048
22.7142,3003
22.7359,3076
22.7576,3197
22.7794,3042
22.8011,3184
22.8228,3160
22.8446,3153
22.8663,3177
22.888,3192
22.9098,3062
22.9315,3045
22.9532,3108
22.9749,3077
22.9967,3064
23.0184,3009
23.0401,2953
23.0619,2988
23.0836,2993
23.1053,3002
23.1271,2934
23.1488,3055
23.1705,2974
23.1923,2882
23.214,3032
23.2357,3035
23.2575,2962
23.2792,2989
23.3009,2948
23.3227,2933
23.3444,2823
23.3661,2943
23.3879,2818
23.4096,2842
23.4313,2937
23.4531,2817
23.4748,2923
23.4965,2904
23.5183,2935
23.54,2879
23.5617,2879
23.5835,2921
23.6052,2813
23.6269,2901
23.6487,2819
23.6704,2778
23.6921,2805
23.7139,2791
23.7356,2794
23.7573,2830
23.7791,2773
23.8008,2751
23.8225,2856
23.8443,2852
23.866,2828
23.8877,2774
23.9095,2870
23.9312,2877
23.9529,2936
23.9747,2844
23.9964,2837
24.0181,2834
24.0399,2871
24.0616,2871
24.0833,2846
24.1051,2775
24.1268,2804
24.1485,2684
24.1703,2765
24.192,2812
24.2137,2800
24.2355,2803
24.2572,2775
24.2789,2775
24.3007,2812
24.3224,2869
24.3441,2802
24.3659,2809
24.3876,2779
24.4093,2832
24.4311,2701
24.4528,2815
24.4745,2783
24.4963,2873
24.518,2824
24.5397,2830
24.5615,2880
24.5832,2754
24.6049,2773
24.6266,2718
24.6484,2675
24.6701,2803
24.6918,2763
24.7136,2781
24.7353,2667
24.757,2807
24.7788,2807
24.8005,2726
24.8222,2742
24.844,2709
24.8657,2752
24.8874,2733
24.9092,2697
24.9309,2768
24.9526,2792
24.9744,2785
24.9961,2798
25.0178,2745
25.0396,2793
25.0613,2681
25.083,2688
25.1048,2711
25.1265,2766
25.1482,2768
25.17,2702
25.1917,2690
25.2134,2719
25.2352,2758
25.2569,2766
25.2786,2717
25.3004,2702
25.3221,2804
25.3438,2727
25.3656,2754
25.3873,2867
25.409,2678
25.4308,2677
25.4525,2712
25.4742,2687
25.496,2664
25.5177,2654
25.5394,2758
25.5612,2774
25.5829,2852
25.6046,2710
25.6264,2606
25.6481,2767
25.6698,2742
25.6916,2807
25.7133,2789
25.735,2759
25.7568,2728
25.7785,2840
25.8002,2876
25.822,2864
25.8437,2804
25.8654,2879
25.8872,2854
25.9089,2759
25.9306,2741
25.9524,2796
25.9741,2898
25.9958,2837
26.0176,2824
26.0393,2806
26.061,2806
26.0828,2701
26.1045,2651
26.1262,2780
26.148,2746
26.1697,2714
26.1914,2872
26.2131,2858
26.2349,2756
26.2566,2666
26.2783,2699
26.3001,2730
26.3218,2918
26.3435,2859
26.3653,2775
26.387,2762
26.4087,2854
26.4305,2837
26.4522,2825
26.4739,2815
26.4957,2855
26.5174,2788
26.5391,2839
26.5609,2827
26.5826,2858
26.6043,2842
26.6261,2960
26.6478,2889
26.6695,2862
26.6913,2858
26.713,2812
26.7347,2845
26.7565,2835
26.7782,2887
26.7999,2901
26.8217,2944
26.8434,2882
26.8651,2934
26.8869,2881
26.9086,2907
26.9303,2951
26.9521,2954
26.9738,2886
26.9955,2992
27.0173,2846
27.039,3011
27.0607,3032
27.0825,2968
27.1042,2829
27.1259,2941
27.1477,3067
27.1694,2999
27.1911,3135
27.2129,3026
27.2346,3089
27.2563,3026
27.2781,3021
27.2998,3117
27.3215,3115
27.3433,3161
27.365,3140
27.3867,3251
27.4085,3129
27.4302,3143
27.4519,3175
27.4737,3168
27.4954,3289
27.5171,3304
27.5389,3354
27.5606,3271
27.5823,3355
27.6041,3379
27.6258,3391
27.6475,3335
27.6693,3397
27.691,3425
27.7127,3519
27.7345,3581
27.7562,3466
27.7779,3654
27.7996,3591
27.8214,3786
27.8431,3815
27.8648,3924
27.8866,3938
27.9083,3880
27.93,3942
27.9518,4107
27.9735,4062
27.9952,4034
28.017,4217
28.0387,4272
28.0604,4456
28.0822,4527
28.1039,4579
28.1256,4692
28.1474,4827
28.1691,4876
28.1908,5079
28.2126,5228
28.2343,5355
28.256,5468
28.2778,5732
28.2995,5863
28.3212,6161
28.343,6496
28.3647,6716
28.3864,7120
28.4082,7480
28.4299,8006
28.4516,8347
28.4734,8944
28.4951,9560
28.5168,10494
28.5386,11166
28.5603,11735
28.582,12782
28.6038,13824
28.6255,14433
28.6472,15080
28.669,15445
28.6907,15320
28.7124,14855
28.7342,14451
28.7559,13461
28.7776,12619
28.7994,11745
28.8211,10954
28.8428,10270
28.8646,9722
28.8863,9004
28.908,8575
28.9298,8238
28.9515,7867
28.9732,7737
28.995,7283
29.0167,7185
29.0384,6903
29.0602,6967
29.0819,6484
29.1036,6578
29.1254,6236
29.1471,6267
29.1688,6021
29.1906,5923
29.2123,5886
29.234,5659
29.2558,5410
29.2775,5498
29.2992,5439
29.321,5329
29.3427,5333
29.3644,5210
29.3861,5038
29.4079,4975
29.4296,5003
29.4513,4800
29.4731,4881
29.4948,4882
29.5165,4735
29.5383,4773
29.56,4709
29.5817,4699
29.6035,4572
29.6252,4627
29.6469,4621
29.6687,4491
29.6904,4454
29.7121,4420
29.7339,4440
29.7556,4535
29.7773,4296
29.7991,4259
29.8208,4204
29.8425,4243
29.8643,4321
29.886,4191
29.9077,4265
29.9295,4217
29.9512,4110
29.9729,4236
29.9947,4170