File: clay-plate-XRD-S2-2022/ENVT4461 S-16 Heated-550.csv
"Angle","Counts"
3.00243,24852
3.02417,24341
3.0459,23641
3.06763,22976
3.08936,22738
3.1111,22316
3.13283,21764
3.15456,21560
3.1763,20710
3.19803,20435
3.21976,19632
3.24149,19480
3.26323,19290
3.28496,18636
3.30669,18419
3.32843,17999
3.35016,17616
3.37189,17275
3.39363,16930
3.41536,16712
3.43709,16351
3.45882,16021
3.48056,15876
3.50229,15671
3.52402,15485
3.54576,15157
3.56749,14804
3.58922,14715
3.61095,14547
3.63269,14341
3.65442,14257
3.67615,13912
3.69789,13478
3.71962,13408
3.74135,13351
3.76308,13071
3.78482,13109
3.80655,12755
3.82828,12706
3.85002,12373
3.87175,12159
3.89348,12002
3.91521,11803
3.93695,11677
3.95868,11989
3.98041,11562
4.00215,11504
4.02388,11286
4.04561,11369
4.06734,11219
4.08908,10955
4.11081,10991
4.13254,10667
4.15428,10781
4.17601,10576
4.19774,10328
4.21947,10260
4.24121,10186
4.26294,10171
4.28467,10140
4.30641,9839
4.32814,9838
4.34987,9619
4.3716,9516
4.39334,9782
4.41507,9682
4.4368,9373
4.45854,9734
4.48027,9344
4.502,9384
4.52373,9153
4.54547,9152
4.5672,9198
4.58893,9238
4.61067,9254
4.6324,9056
4.65413,8980
4.67586,8991
4.6976,8822
4.71933,8903
4.74106,8878
4.7628,8736
4.78453,8867
4.80626,8676
4.828,8628
4.84973,8681
4.87146,8558
4.89319,8711
4.91493,8471
4.93666,8340
4.95839,8511
4.98013,8521
5.00186,8341
5.02359,8372
5.04532,8470
5.06706,8517
5.08879,8487
5.11052,8509
5.13226,8396
5.15399,8444
5.17572,8443
5.19745,8429
5.21919,8277
5.24092,8378
5.26265,8554
5.28439,8409
5.30612,8577
5.32785,8371
5.34958,8261
5.37132,8477
5.39305,8264
5.41478,8383
5.43652,8551
5.45825,8501
5.47998,8414
5.50171,8378
5.52345,8353
5.54518,8396
5.56691,8373
5.58865,8525
5.61038,8672
5.63211,8538
5.65384,8524
5.67558,8636
5.69731,8514
5.71904,8491
5.74078,8632
5.76251,8627
5.78424,8470
5.80597,8494
5.82771,8521
5.84944,8503
5.87117,8532
5.89291,8660
5.91464,8686
5.93637,8558
5.9581,8680
5.97984,8687
6.00157,8982
6.0233,8670
6.04504,8802
6.06677,8931
6.0885,8673
6.11024,9014
6.13197,8938
6.1537,8999
6.17543,8800
6.19717,8899
6.2189,8968
6.24063,9042
6.26237,9043
6.2841,8947
6.30583,9018
6.32756,8991
6.3493,9205
6.37103,9168
6.39276,9139
6.4145,9159
6.43623,9263
6.45796,9112
6.47969,9138
6.50143,9496
6.52316,9245
6.54489,9220
6.56663,9186
6.58836,9351
6.61009,9372
6.63182,9470
6.65356,9401
6.67529,9274
6.69702,9397
6.71876,9503
6.74049,9466
6.76222,9437
6.78395,9457
6.80569,9399
6.82742,9431
6.84915,9501
6.87089,9538
6.89262,9587
6.91435,9612
6.93608,9580
6.95782,9581
6.97955,9493
7.00128,9665
7.02302,9722
7.04475,9709
7.06648,9618
7.08821,9838
7.10995,9747
7.13168,9726
7.15341,9921
7.17515,9761
7.19688,9654
7.21861,9844
7.24034,9814
7.26208,9777
7.28381,10031
7.30554,9825
7.32728,9953
7.34901,9836
7.37074,9938
7.39247,10043
7.41421,9980
7.43594,10100
7.45767,10021
7.47941,10109
7.50114,10112
7.52287,10121
7.54461,10011
7.56634,10172
7.58807,10315
7.6098,10192
7.63154,10170
7.65327,10237
7.675,10362
7.69674,10266
7.71847,10332
7.7402,10297
7.76193,10447
7.78367,10497
7.8054,10507
7.82713,10175
7.84887,10458
7.8706,10321
7.89233,10451
7.91406,10351
7.9358,10722
7.95753,10529
7.97926,10693
8.001,10562
8.02273,10690
8.04446,10624
8.06619,10672
8.08793,10716
8.10966,10841
8.13139,10615
8.15313,10783
8.17486,10996
8.19659,10909
8.21832,10924
8.24006,10966
8.26179,11078
8.28352,11037
8.30526,10926
8.32699,10998
8.34872,10981
8.37045,10887
8.39219,10964
8.41392,11224
8.43565,11212
8.45739,11057
8.47912,11325
8.50085,11190
8.52258,11110
8.54432,11295
8.56605,11294
8.58778,11403
8.60952,11295
8.63125,11444
8.65298,11368
8.67471,11559
8.69645,11351
8.71818,11534
8.73991,11459
8.76165,11640
8.78338,11620
8.80511,11591
8.82685,11719
8.84858,11760
8.87031,11798
8.89204,11922
8.91378,11757
8.93551,12014
8.95724,11896
8.97898,11907
9.00071,12028
9.02244,12043
9.04417,12084
9.06591,12133
9.08764,12167
9.10937,12087
9.13111,12368
9.15284,12509
9.17457,12397
9.1963,12362
9.21804,12538
9.23977,12411
9.2615,12605
9.28324,12725
9.30497,12683
9.3267,12622
9.34843,13057
9.37017,12904
9.3919,13236
9.41363,13161
9.43537,13277
9.4571,13357
9.47883,13494
9.50056,13607
9.5223,13707
9.54403,13994
9.56576,14044
9.5875,14000
9.60923,14279
9.63096,14512
9.65269,14720
9.67443,14732
9.69616,15021
9.71789,15077
9.73963,15171
9.76136,15228
9.78309,15523
9.80482,15741
9.82656,15675
9.84829,15509
9.87002,15616
9.89176,15360
9.91349,15351
9.93522,15166
9.95695,14693
9.97869,14369
10.0004,14296
10.0222,13901
10.0439,13936
10.0656,13541
10.0874,13504
10.1091,13208
10.1308,13339
10.1526,13110
10.1743,12926
10.196,12825
10.2177,12692
10.2395,12641
10.2612,12614
10.2829,12239
10.3047,12161
10.3264,12024
10.3481,11966
10.3699,11844
10.3916,11866
10.4133,11807
10.4351,11656
10.4568,11455
10.4785,11429
10.5003,11266
10.522,11102
10.5437,11286
10.5655,10957
10.5872,10756
10.6089,10807
10.6307,10587
10.6524,10310
10.6741,10205
10.6959,10099
10.7176,10105
10.7393,9932
10.7611,9882
10.7828,9598
10.8045,9394
10.8263,9378
10.848,8978
10.8697,8998
10.8915,8897
10.9132,8842
10.9349,8847
10.9567,8564
10.9784,8550
11.0001,8452
11.0219,8255
11.0436,7986
11.0653,7962
11.0871,7791
11.1088,7801
11.1305,7857
11.1523,7678
11.174,7495
11.1957,7380
11.2175,7279
11.2392,7176
11.2609,6975
11.2827,7012
11.3044,6861
11.3261,6857
11.3479,6691
11.3696,6792
11.3913,6574
11.4131,6577
11.4348,6490
11.4565,6321
11.4783,6245
11.5,6266
11.5217,6004
11.5435,6087
11.5652,5995
11.5869,5929
11.6087,6001
11.6304,5786
11.6521,5753
11.6739,5655
11.6956,5528
11.7173,5444
11.7391,5497
11.7608,5250
11.7825,5230
11.8042,5234
11.826,5209
11.8477,5251
11.8694,5261
11.8912,4984
11.9129,4939
11.9346,5079
11.9564,4913
11.9781,4797
11.9998,4820
12.0216,4741
12.0433,4790
12.065,4787
12.0868,4693
12.1085,4624
12.1302,4692
12.152,4354
12.1737,4525
12.1954,4517
12.2172,4303
12.2389,4441
12.2606,4365
12.2824,4221
12.3041,4422
12.3258,4293
12.3476,4245
12.3693,4278
12.391,4181
12.4128,4226
12.4345,4142
12.4562,4131
12.478,3921
12.4997,3856
12.5214,3974
12.5432,4072
12.5649,4011
12.5866,3974
12.6084,3837
12.6301,3932
12.6518,3804
12.6736,3927
12.6953,3788
12.717,3788
12.7388,3717
12.7605,3774
12.7822,3765
12.804,3636
12.8257,3700
12.8474,3755
12.8692,3744
12.8909,3650
12.9126,3663
12.9344,3583
12.9561,3572
12.9778,3748
12.9996,3653
13.0213,3613
13.043,3489
13.0648,3616
13.0865,3544
13.1082,3496
13.13,3595
13.1517,3456
13.1734,3451
13.1952,3439
13.2169,3459
13.2386,3517
13.2604,3475
13.2821,3458
13.3038,3355
13.3256,3395
13.3473,3482
13.369,3419
13.3907,3390
13.4125,3371
13.4342,3328
13.4559,3345
13.4777,3303
13.4994,3378
13.5211,3325
13.5429,3473
13.5646,3310
13.5863,3292
13.6081,3347
13.6298,3246
13.6515,3133
13.6733,3266
13.695,3228
13.7167,3361
13.7385,3295
13.7602,3373
13.7819,3413
13.8037,3295
13.8254,3235
13.8471,3268
13.8689,3279
13.8906,3175
13.9123,3247
13.9341,3313
13.9558,3153
13.9775,3249
13.9993,3164
14.021,3198
14.0427,3217
14.0645,3222
14.0862,3182
14.1079,3188
14.1297,3230
14.1514,3293
14.1731,3191
14.1949,3203
14.2166,3204
14.2383,3180
14.2601,3212
14.2818,3169
14.3035,3263
14.3253,3272
14.347,3150
14.3687,3236
14.3905,3175
14.4122,3273
14.4339,3193
14.4557,3191
14.4774,3152
14.4991,3316
14.5209,3189
14.5426,3145
14.5643,3256
14.5861,3181
14.6078,3211
14.6295,3228
14.6513,3180
14.673,3179
14.6947,3164
14.7165,3267
14.7382,3172
14.7599,3203
14.7817,3138
14.8034,3197
14.8251,3209
14.8469,3207
14.8686,3230
14.8903,3170
14.9121,3151
14.9338,3219
14.9555,3134
14.9773,3182
14.999,3199
15.0207,3143
15.0424,3104
15.0642,3042
15.0859,3099
15.1076,3162
15.1294,3155
15.1511,3133
15.1728,3060
15.1946,3072
15.2163,3203
15.238,3148
15.2598,3199
15.2815,3170
15.3032,3134
15.325,3145
15.3467,3123
15.3684,3061
15.3902,3024
15.4119,3004
15.4336,3066
15.4554,3133
15.4771,3180
15.4988,3074
15.5206,3122
15.5423,3134
15.564,3062
15.5858,3028
15.6075,3134
15.6292,3127
15.651,3117
15.6727,3043
15.6944,3104
15.7162,3052
15.7379,3127
15.7596,3155
15.7814,3155
15.8031,3029
15.8248,3066
15.8466,2954
15.8683,3081
15.89,2979
15.9118,3036
15.9335,2979
15.9552,3118
15.977,3081
15.9987,3036
16.0204,3027
16.0422,3021
16.0639,3057
16.0856,3021
16.1074,3088
16.1291,3143
16.1508,3010
16.1726,3173
16.1943,3017
16.216,3080
16.2378,3069
16.2595,2966
16.2812,2991
16.303,3063
16.3247,3050
16.3464,3137
16.3682,3094
16.3899,3102
16.4116,3000
16.4334,3140
16.4551,3058
16.4768,3021
16.4986,3013
16.5203,3110
16.542,3123
16.5638,3060
16.5855,2969
16.6072,3088
16.6289,3108
16.6507,3127
16.6724,3064
16.6941,3111
16.7159,3098
16.7376,3067
16.7593,3100
16.7811,2994
16.8028,3145
16.8245,3087
16.8463,3206
16.868,3063
16.8897,3044
16.9115,3081
16.9332,3179
16.9549,3095
16.9767,3071
16.9984,3015
17.0201,3099
17.0419,3079
17.0636,3029
17.0853,3109
17.1071,3079
17.1288,2950
17.1505,3026
17.1723,3193
17.194,3199
17.2157,3075
17.2375,3036
17.2592,2995
17.2809,3082
17.3027,2993
17.3244,3010
17.3461,3068
17.3679,3112
17.3896,3129
17.4113,3061
17.4331,3127
17.4548,3053
17.4765,3021
17.4983,3078
17.52,3035
17.5417,3004
17.5635,3032
17.5852,3104
17.6069,3017
17.6287,3111
17.6504,3090
17.6721,3131
17.6939,3002
17.7156,3061
17.7373,3155
17.7591,3049
17.7808,3078
17.8025,3107
17.8243,3186
17.846,3128
17.8677,3043
17.8895,3102
17.9112,3018
17.9329,3159
17.9547,3139
17.9764,3158
17.9981,3051
18.0199,3199
18.0416,3147
18.0633,3030
18.0851,3093
18.1068,3196
18.1285,3083
18.1503,3143
18.172,3192
18.1937,3106
18.2154,3146
18.2372,3311
18.2589,3174
18.2806,3046
18.3024,3182
18.3241,3054
18.3458,3179
18.3676,3249
18.3893,3207
18.411,3174
18.4328,3061
18.4545,3074
18.4762,3212
18.498,3071
18.5197,3144
18.5414,3185
18.5632,3192
18.5849,3166
18.6066,3226
18.6284,3259
18.6501,3175
18.6718,3242
18.6936,3192
18.7153,3204
18.737,3173
18.7588,3226
18.7805,3151
18.8022,3240
18.824,3252
18.8457,3201
18.8674,3235
18.8892,3255
18.9109,3330
18.9326,3295
18.9544,3291
18.9761,3150
18.9978,3384
19.0196,3261
19.0413,3243
19.063,3202
19.0848,3306
19.1065,3215
19.1282,3229
19.15,3366
19.1717,3251
19.1934,3361
19.2152,3334
19.2369,3383
19.2586,3158
19.2804,3244
19.3021,3191
19.3238,3271
19.3456,3393
19.3673,3287
19.389,3373
19.4108,3315
19.4325,3314
19.4542,3405
19.476,3377
19.4977,3444
19.5194,3395
19.5412,3352
19.5629,3410
19.5846,3381
19.6064,3415
19.6281,3535
19.6498,3442
19.6716,3458
19.6933,3543
19.715,3525
19.7368,3550
19.7585,3522
19.7802,3752
19.8019,3668
19.8237,3650
19.8454,3657
19.8671,3776
19.8889,3804
19.9106,3767
19.9323,3818
19.9541,3886
19.9758,3868
19.9975,3896
20.0193,3988
20.041,4079
20.0627,4010
20.0845,4054
20.1062,3985
20.1279,3970
20.1497,3936
20.1714,3985
20.1931,3888
20.2149,3974
20.2366,3967
20.2583,3878
20.2801,3841
20.3018,3714
20.3235,3676
20.3453,3681
20.367,3624
20.3887,3593
20.4105,3441
20.4322,3479
20.4539,3595
20.4757,3530
20.4974,3476
20.5191,3440
20.5409,3506
20.5626,3597
20.5843,3530
20.6061,3569
20.6278,3445
20.6495,3489
20.6713,3406
20.693,3643
20.7147,3569
20.7365,3407
20.7582,3338
20.7799,3447
20.8017,3392
20.8234,3498
20.8451,3470
20.8669,3390
20.8886,3380
20.9103,3396
20.9321,3428
20.9538,3346
20.9755,3473
20.9973,3413
21.019,3455
21.0407,3436
21.0625,3413
21.0842,3298
21.1059,3379
21.1277,3366
21.1494,3351
21.1711,3383
21.1929,3365
21.2146,3415
21.2363,3378
21.2581,3330
21.2798,3345
21.3015,3367
21.3233,3385
21.345,3330
21.3667,3229
21.3884,3402
21.4102,3398
21.4319,3318
21.4536,3302
21.4754,3427
21.4971,3314
21.5188,3184
21.5406,3363
21.5623,3200
21.584,3312
21.6058,3300
21.6275,3319
21.6492,3399
21.671,3297
21.6927,3345
21.7144,3244
21.7362,3317
21.7579,3167
21.7796,3188
21.8014,3244
21.8231,3167
21.8448,3257
21.8666,3208
21.8883,3349
21.91,3175
21.9318,3180
21.9535,3200
21.9752,3158
21.997,3231
22.0187,3260
22.0404,3155
22.0622,3075
22.0839,3057
22.1056,3210
22.1274,3178
22.1491,3194
22.1708,3241
22.1926,3258
22.2143,3209
22.236,3143
22.2578,3232
22.2795,3280
22.3012,3360
22.323,3267
22.3447,3182
22.3664,3227
22.3882,3221
22.4099,3328
22.4316,3366
22.4534,3304
22.4751,3414
22.4968,3289
22.5186,3402
22.5403,3449
22.562,3354
22.5838,3405
22.6055,3334
22.6272,3446
22.649,3313
22.6707,3375
22.6924,3348
22.7142,3419
22.7359,3353
22.7576,3271
22.7794,3404
22.8011,3346
22.8228,3437
22.8446,3347
22.8663,3382
22.888,3401
22.9098,3334
22.9315,3511
22.9532,3439
22.9749,3359
22.9967,3408
23.0184,3314
23.0401,3236
23.0619,3396
23.0836,3392
23.1053,3317
23.1271,3323
23.1488,3294
23.1705,3355
23.1923,3277
23.214,3290
23.2357,3247
23.2575,3294
23.2792,3223
23.3009,3280
23.3227,3233
23.3444,3266
23.3661,3311
23.3879,3256
23.4096,3325
23.4313,3182
23.4531,3310
23.4748,3123
23.4965,3276
23.5183,3299
23.54,3324
23.5617,3292
23.5835,3319
23.6052,3336
23.6269,3323
23.6487,3314
23.6704,3234
23.6921,3333
23.7139,3466
23.7356,3471
23.7573,3396
23.7791,3562
23.8008,3809
23.8225,3549
23.8443,3707
23.866,3663
23.8877,3691
23.9095,3414
23.9312,3351
23.9529,3410
23.9747,3367
23.9964,3305
24.0181,3380
24.0399,3221
24.0616,3329
24.0833,3311
24.1051,3260
24.1268,3250
24.1485,3299
24.1703,3258
24.192,3342
24.2137,3212
24.2355,3154
24.2572,3213
24.2789,3258
24.3007,3212
24.3224,3139
24.3441,3227
24.3659,3231
24.3876,3125
24.4093,3197
24.4311,3178
24.4528,3295
24.4745,3224
24.4963,3212
24.518,3200
24.5397,3187
24.5615,3283
24.5832,3220
24.6049,3195
24.6266,3200
24.6484,3280
24.6701,3257
24.6918,3224
24.7136,3165
24.7353,3281
24.757,3247
24.7788,3244
24.8005,3294
24.8222,3257
24.844,3350
24.8657,3222
24.8874,3196
24.9092,3185
24.9309,3372
24.9526,3259
24.9744,3183
24.9961,3303
25.0178,3249
25.0396,3365
25.0613,3286
25.083,3261
25.1048,3304
25.1265,3297
25.1482,3371
25.17,3339
25.1917,3330
25.2134,3284
25.2352,3310
25.2569,3266
25.2786,3307
25.3004,3263
25.3221,3227
25.3438,3246
25.3656,3343
25.3873,3317
25.409,3178
25.4308,3112
25.4525,3273
25.4742,3213
25.496,3230
25.5177,3263
25.5394,3283
25.5612,3256
25.5829,3277
25.6046,3210
25.6264,3277
25.6481,3344
25.6698,3173
25.6916,3132
25.7133,3168
25.735,3241
25.7568,3231
25.7785,3204
25.8002,3281
25.822,3268
25.8437,3275
25.8654,3198
25.8872,3228
25.9089,3289
25.9306,3233
25.9524,3271
25.9741,3278
25.9958,3246
26.0176,3118
26.0393,3191
26.061,3265
26.0828,3209
26.1045,3245
26.1262,3313
26.148,3290
26.1697,3272
26.1914,3252
26.2131,3218
26.2349,3245
26.2566,3328
26.2783,3076
26.3001,3113
26.3218,3316
26.3435,3252
26.3653,3365
26.387,3128
26.4087,3295
26.4305,3193
26.4522,3240
26.4739,3274
26.4957,3225
26.5174,3245
26.5391,3171
26.5609,3178
26.5826,3214
26.6043,3203
26.6261,3314
26.6478,3292
26.6695,3323
26.6913,3214
26.713,3179
26.7347,3212
26.7565,3239
26.7782,3181
26.7999,3237
26.8217,3157
26.8434,3242
26.8651,3116
26.8869,3302
26.9086,3191
26.9303,3312
26.9521,3333
26.9738,3275
26.9955,3484
27.0173,3346
27.039,3338
27.0607,3408
27.0825,3296
27.1042,3395
27.1259,3267
27.1477,3147
27.1694,3254
27.1911,3276
27.2129,3325
27.2346,3267
27.2563,3342
27.2781,3238
27.2998,3312
27.3215,3355
27.3433,3314
27.365,3321
27.3867,3355
27.4085,3324
27.4302,3227
27.4519,3270
27.4737,3289
27.4954,3276
27.5171,3347
27.5389,3423
27.5606,3325
27.5823,3326
27.6041,3301
27.6258,3353
27.6475,3341
27.6693,3358
27.691,3264
27.7127,3269
27.7345,3360
27.7562,3417
27.7779,3269
27.7996,3324
27.8214,3367
27.8431,3317
27.8648,3300
27.8866,3423
27.9083,3372
27.93,3350
27.9518,3440
27.9735,3402
27.9952,3452
28.017,3484
28.0387,3360
28.0604,3306
28.0822,3432
28.1039,3420
28.1256,3343
28.1474,3366
28.1691,3424
28.1908,3430
28.2126,3371
28.2343,3434
28.256,3380
28.2778,3460
28.2995,3409
28.3212,3330
28.343,3525
28.3647,3343
28.3864,3313
28.4082,3356
28.4299,3272
28.4516,3370
28.4734,3341
28.4951,3474
28.5168,3352
28.5386,3310
28.5603,3472
28.582,3473
28.6038,3439
28.6255,3428
28.6472,3557
28.669,3505
28.6907,3485
28.7124,3498
28.7342,3520
28.7559,3594
28.7776,3455
28.7994,3583
28.8211,3627
28.8428,3585
28.8646,3589
28.8863,3808
28.908,3680
28.9298,3683
28.9515,3776
28.9732,3680
28.995,3848
29.0167,4067
29.0384,3949
29.0602,3917
29.0819,3796
29.1036,4123
29.1254,4007
29.1471,3907
29.1688,3978
29.1906,3893
29.2123,3940
29.234,3923
29.2558,3957
29.2775,4083
29.2992,3910
29.321,4007
29.3427,3895
29.3644,3786
29.3861,3930
29.4079,3864
29.4296,3998
29.4513,4010
29.4731,3988
29.4948,4140
29.5165,4081
29.5383,4038
29.56,4177
29.5817,4141
29.6035,4147
29.6252,4088
29.6469,4093
29.6687,4126
29.6904,4152
29.7121,4303
29.7339,4350
29.7556,4324
29.7773,4360
29.7991,4381
29.8208,4544
29.8425,4347
29.8643,4694
29.886,4555
29.9077,4746
29.9295,4584
29.9512,4799
29.9729,4716
29.9947,4753