File: clay-plate-XRD-S2-2022/ENVT4461 S-16 Mg+Gly.csv
"Angle","Counts"
3.00243,21363
3.02417,21007
3.0459,20545
3.06763,20029
3.08936,19739
3.1111,19667
3.13283,19264
3.15456,18882
3.1763,18603
3.19803,18165
3.21976,17874
3.24149,17590
3.26323,17437
3.28496,17255
3.30669,16845
3.32843,16493
3.35016,16133
3.37189,15845
3.39363,15803
3.41536,15402
3.43709,15216
3.45882,14961
3.48056,14471
3.50229,14400
3.52402,14344
3.54576,14002
3.56749,13917
3.58922,13491
3.61095,13299
3.63269,13144
3.65442,13088
3.67615,12803
3.69789,12521
3.71962,12331
3.74135,12158
3.76308,11946
3.78482,11631
3.80655,11555
3.82828,11154
3.85002,11204
3.87175,10725
3.89348,10758
3.91521,10462
3.93695,10430
3.95868,10335
3.98041,10336
4.00215,9926
4.02388,9877
4.04561,9545
4.06734,9482
4.08908,9435
4.11081,9182
4.13254,9040
4.15428,8826
4.17601,8812
4.19774,8585
4.21947,8459
4.24121,8411
4.26294,8222
4.28467,8155
4.30641,8075
4.32814,7916
4.34987,7754
4.3716,7794
4.39334,7624
4.41507,7394
4.4368,7302
4.45854,7073
4.48027,7093
4.502,6970
4.52373,6852
4.54547,6842
4.5672,6812
4.58893,6539
4.61067,6422
4.6324,6368
4.65413,6353
4.67586,6188
4.6976,6181
4.71933,5937
4.74106,5911
4.7628,5937
4.78453,5620
4.80626,5601
4.828,5661
4.84973,5557
4.87146,5477
4.89319,5246
4.91493,5249
4.93666,5180
4.95839,5182
4.98013,5060
5.00186,4905
5.02359,4831
5.04532,4895
5.06706,4821
5.08879,4583
5.11052,4619
5.13226,4505
5.15399,4545
5.17572,4560
5.19745,4331
5.21919,4299
5.24092,4325
5.26265,4279
5.28439,4346
5.30612,4215
5.32785,4216
5.34958,4090
5.37132,3945
5.39305,3950
5.41478,3884
5.43652,3847
5.45825,3963
5.47998,3884
5.50171,3812
5.52345,3823
5.54518,3893
5.56691,3734
5.58865,3677
5.61038,3517
5.63211,3678
5.65384,3740
5.67558,3526
5.69731,3501
5.71904,3563
5.74078,3611
5.76251,3591
5.78424,3573
5.80597,3421
5.82771,3369
5.84944,3317
5.87117,3480
5.89291,3528
5.91464,3411
5.93637,3369
5.9581,3407
5.97984,3387
6.00157,3405
6.0233,3350
6.04504,3353
6.06677,3276
6.0885,3271
6.11024,3284
6.13197,3421
6.1537,3266
6.17543,3249
6.19717,3171
6.2189,3251
6.24063,3323
6.26237,3310
6.2841,3393
6.30583,3258
6.32756,3279
6.3493,3332
6.37103,3290
6.39276,3235
6.4145,3270
6.43623,3235
6.45796,3208
6.47969,3276
6.50143,3223
6.52316,3299
6.54489,3347
6.56663,3228
6.58836,3309
6.61009,3304
6.63182,3339
6.65356,3295
6.67529,3246
6.69702,3345
6.71876,3219
6.74049,3258
6.76222,3388
6.78395,3396
6.80569,3165
6.82742,3320
6.84915,3297
6.87089,3275
6.89262,3351
6.91435,3330
6.93608,3301
6.95782,3266
6.97955,3433
7.00128,3339
7.02302,3446
7.04475,3385
7.06648,3371
7.08821,3365
7.10995,3354
7.13168,3409
7.15341,3355
7.17515,3330
7.19688,3361
7.21861,3356
7.24034,3329
7.26208,3450
7.28381,3474
7.30554,3429
7.32728,3360
7.34901,3571
7.37074,3437
7.39247,3381
7.41421,3428
7.43594,3431
7.45767,3468
7.47941,3472
7.50114,3525
7.52287,3449
7.54461,3474
7.56634,3456
7.58807,3504
7.6098,3577
7.63154,3499
7.65327,3570
7.675,3616
7.69674,3624
7.71847,3519
7.7402,3661
7.76193,3626
7.78367,3515
7.8054,3645
7.82713,3597
7.84887,3604
7.8706,3723
7.89233,3604
7.91406,3695
7.9358,3631
7.95753,3620
7.97926,3638
8.001,3550
8.02273,3611
8.04446,3537
8.06619,3591
8.08793,3631
8.10966,3600
8.13139,3694
8.15313,3583
8.17486,3640
8.19659,3560
8.21832,3669
8.24006,3845
8.26179,3579
8.28352,3878
8.30526,3716
8.32699,3691
8.34872,3839
8.37045,3735
8.39219,3852
8.41392,3841
8.43565,3592
8.45739,3845
8.47912,3772
8.50085,3744
8.52258,3825
8.54432,3696
8.56605,3819
8.58778,3776
8.60952,3833
8.63125,3694
8.65298,3880
8.67471,3861
8.69645,3865
8.71818,3879
8.73991,3823
8.76165,3855
8.78338,3896
8.80511,3896
8.82685,3817
8.84858,3694
8.87031,3888
8.89204,3855
8.91378,3898
8.93551,3995
8.95724,3884
8.97898,3762
9.00071,3887
9.02244,3952
9.04417,3986
9.06591,3904
9.08764,3987
9.10937,3956
9.13111,4003
9.15284,3905
9.17457,3980
9.1963,4069
9.21804,4067
9.23977,3921
9.2615,3968
9.28324,3979
9.30497,3923
9.3267,4103
9.34843,3989
9.37017,4057
9.3919,4061
9.41363,3990
9.43537,4056
9.4571,4060
9.47883,3985
9.50056,4077
9.5223,4076
9.54403,4029
9.56576,4031
9.5875,4141
9.60923,4092
9.63096,4170
9.65269,4219
9.67443,4184
9.69616,4300
9.71789,4294
9.73963,4206
9.76136,4202
9.78309,4436
9.80482,4434
9.82656,4289
9.84829,4380
9.87002,4472
9.89176,4391
9.91349,4337
9.93522,4410
9.95695,4438
9.97869,4532
10.0004,4467
10.0222,4502
10.0439,4527
10.0656,4493
10.0874,4440
10.1091,4461
10.1308,4487
10.1526,4420
10.1743,4505
10.196,4530
10.2177,4442
10.2395,4601
10.2612,4549
10.2829,4360
10.3047,4400
10.3264,4387
10.3481,4481
10.3699,4284
10.3916,4350
10.4133,4327
10.4351,4432
10.4568,4314
10.4785,4257
10.5003,4200
10.522,4085
10.5437,4085
10.5655,4165
10.5872,4131
10.6089,4167
10.6307,4212
10.6524,4160
10.6741,4124
10.6959,4198
10.7176,4046
10.7393,4008
10.7611,3950
10.7828,4059
10.8045,4117
10.8263,4081
10.848,3980
10.8697,4062
10.8915,4010
10.9132,4012
10.9349,3902
10.9567,3954
10.9784,3964
11.0001,3860
11.0219,3886
11.0436,3955
11.0653,3909
11.0871,3895
11.1088,4044
11.1305,3952
11.1523,4022
11.174,3965
11.1957,3882
11.2175,3952
11.2392,4019
11.2609,3876
11.2827,3873
11.3044,3885
11.3261,3849
11.3479,3866
11.3696,3798
11.3913,3846
11.4131,3851
11.4348,3742
11.4565,3874
11.4783,3879
11.5,3958
11.5217,3907
11.5435,3738
11.5652,3759
11.5869,3873
11.6087,3911
11.6304,3876
11.6521,3715
11.6739,3741
11.6956,3826
11.7173,3829
11.7391,3779
11.7608,3775
11.7825,3965
11.8042,3761
11.826,3857
11.8477,3789
11.8694,3786
11.8912,3777
11.9129,3752
11.9346,3738
11.9564,3655
11.9781,3731
11.9998,3724
12.0216,3768
12.0433,3891
12.065,3682
12.0868,3848
12.1085,3864
12.1302,3803
12.152,3827
12.1737,3887
12.1954,3826
12.2172,3848
12.2389,3883
12.2606,3790
12.2824,3678
12.3041,3768
12.3258,3859
12.3476,3873
12.3693,3850
12.391,3881
12.4128,3858
12.4345,3965
12.4562,3888
12.478,3798
12.4997,3910
12.5214,3821
12.5432,3713
12.5649,3833
12.5866,3897
12.6084,3931
12.6301,3885
12.6518,3978
12.6736,3925
12.6953,4072
12.717,4099
12.7388,4004
12.7605,3918
12.7822,4116
12.804,4091
12.8257,4082
12.8474,4063
12.8692,4082
12.8909,4188
12.9126,4171
12.9344,4256
12.9561,4166
12.9778,4193
12.9996,4287
13.0213,4366
13.043,4400
13.0648,4280
13.0865,4241
13.1082,4428
13.13,4384
13.1517,4400
13.1734,4507
13.1952,4530
13.2169,4569
13.2386,4577
13.2604,4714
13.2821,4622
13.3038,4728
13.3256,4758
13.3473,4815
13.369,4933
13.3907,4789
13.4125,5129
13.4342,5114
13.4559,5202
13.4777,5157
13.4994,5432
13.5211,5374
13.5429,5513
13.5646,5565
13.5863,5826
13.6081,5947
13.6298,6106
13.6515,6204
13.6733,6438
13.695,6539
13.7167,6759
13.7385,6986
13.7602,7341
13.7819,7316
13.8037,7714
13.8254,8020
13.8471,8311
13.8689,8616
13.8906,8771
13.9123,9212
13.9341,9582
13.9558,9663
13.9775,9953
13.9993,10451
14.021,10557
14.0427,10744
14.0645,10939
14.0862,11497
14.1079,11732
14.1297,11969
14.1514,12109
14.1731,12473
14.1949,12396
14.2166,12600
14.2383,12999
14.2601,12753
14.2818,12857
14.3035,12823
14.3253,12625
14.347,12262
14.3687,12142
14.3905,11604
14.4122,11510
14.4339,10753
14.4557,10276
14.4774,9657
14.4991,8932
14.5209,8528
14.5426,8128
14.5643,7651
14.5861,7160
14.6078,6740
14.6295,6339
14.6513,6100
14.673,5674
14.6947,5318
14.7165,5049
14.7382,4928
14.7599,4795
14.7817,4488
14.8034,4410
14.8251,4243
14.8469,4136
14.8686,4024
14.8903,3842
14.9121,3575
14.9338,3675
14.9555,3568
14.9773,3458
14.999,3400
15.0207,3283
15.0424,3412
15.0642,3238
15.0859,3222
15.1076,3176
15.1294,3202
15.1511,2942
15.1728,2929
15.1946,2929
15.2163,2904
15.238,2927
15.2598,2844
15.2815,2834
15.3032,2727
15.325,2680
15.3467,2710
15.3684,2680
15.3902,2698
15.4119,2593
15.4336,2622
15.4554,2610
15.4771,2558
15.4988,2542
15.5206,2529
15.5423,2536
15.564,2466
15.5858,2500
15.6075,2415
15.6292,2375
15.651,2396
15.6727,2417
15.6944,2370
15.7162,2389
15.7379,2338
15.7596,2392
15.7814,2321
15.8031,2332
15.8248,2342
15.8466,2250
15.8683,2338
15.89,2322
15.9118,2350
15.9335,2266
15.9552,2239
15.977,2281
15.9987,2222
16.0204,2249
16.0422,2207
16.0639,2187
16.0856,2184
16.1074,2089
16.1291,2232
16.1508,2152
16.1726,2096
16.1943,2067
16.216,2170
16.2378,2281
16.2595,2251
16.2812,2091
16.303,2144
16.3247,2186
16.3464,2187
16.3682,2157
16.3899,2113
16.4116,2174
16.4334,2132
16.4551,2089
16.4768,2055
16.4986,2120
16.5203,2101
16.542,2029
16.5638,2083
16.5855,2064
16.6072,2033
16.6289,2015
16.6507,1960
16.6724,2076
16.6941,2005
16.7159,2078
16.7376,1967
16.7593,2003
16.7811,2117
16.8028,1994
16.8245,2079
16.8463,2039
16.868,1965
16.8897,2025
16.9115,1976
16.9332,2025
16.9549,2032
16.9767,1921
16.9984,1942
17.0201,1888
17.0419,1881
17.0636,1906
17.0853,1799
17.1071,2039
17.1288,1907
17.1505,1877
17.1723,1984
17.194,1904
17.2157,1928
17.2375,1963
17.2592,1936
17.2809,1962
17.3027,1860
17.3244,1849
17.3461,1911
17.3679,1911
17.3896,1971
17.4113,1934
17.4331,1848
17.4548,1884
17.4765,1732
17.4983,1803
17.52,1795
17.5417,1767
17.5635,1879
17.5852,1854
17.6069,1864
17.6287,1917
17.6504,1830
17.6721,1780
17.6939,1801
17.7156,1776
17.7373,1830
17.7591,1731
17.7808,1827
17.8025,1866
17.8243,1849
17.846,1862
17.8677,1813
17.8895,1894
17.9112,1818
17.9329,1800
17.9547,1858
17.9764,1872
17.9981,1755
18.0199,1782
18.0416,1853
18.0633,1806
18.0851,1771
18.1068,1748
18.1285,1730
18.1503,1762
18.172,1769
18.1937,1727
18.2154,1742
18.2372,1744
18.2589,1805
18.2806,1690
18.3024,1731
18.3241,1817
18.3458,1810
18.3676,1805
18.3893,1872
18.411,1780
18.4328,1731
18.4545,1720
18.4762,1732
18.498,1799
18.5197,1813
18.5414,1736
18.5632,1791
18.5849,1742
18.6066,1735
18.6284,1753
18.6501,1725
18.6718,1796
18.6936,1850
18.7153,1772
18.737,1768
18.7588,1718
18.7805,1714
18.8022,1757
18.824,1733
18.8457,1779
18.8674,1742
18.8892,1737
18.9109,1727
18.9326,1731
18.9544,1715
18.9761,1676
18.9978,1695
19.0196,1721
19.0413,1803
19.063,1740
19.0848,1779
19.1065,1794
19.1282,1742
19.15,1741
19.1717,1718
19.1934,1726
19.2152,1767
19.2369,1770
19.2586,1734
19.2804,1756
19.3021,1794
19.3238,1722
19.3456,1710
19.3673,1729
19.389,1747
19.4108,1774
19.4325,1733
19.4542,1727
19.476,1691
19.4977,1779
19.5194,1777
19.5412,1674
19.5629,1752
19.5846,1632
19.6064,1651
19.6281,1765
19.6498,1780
19.6716,1763
19.6933,1704
19.715,1743
19.7368,1698
19.7585,1774
19.7802,1648
19.8019,1678
19.8237,1735
19.8454,1712
19.8671,1789
19.8889,1857
19.9106,1800
19.9323,1789
19.9541,1852
19.9758,1764
19.9975,1775
20.0193,1777
20.041,1801
20.0627,1795
20.0845,1685
20.1062,1717
20.1279,1790
20.1497,1766
20.1714,1810
20.1931,1675
20.2149,1776
20.2366,1830
20.2583,1765
20.2801,1785
20.3018,1718
20.3235,1852
20.3453,1810
20.367,1753
20.3887,1738
20.4105,1848
20.4322,1833
20.4539,1849
20.4757,1814
20.4974,1877
20.5191,1751
20.5409,1789
20.5626,1882
20.5843,1861
20.6061,1973
20.6278,1845
20.6495,1910
20.6713,1906
20.693,1847
20.7147,1876
20.7365,1903
20.7582,1880
20.7799,1863
20.8017,1872
20.8234,1747
20.8451,1803
20.8669,1869
20.8886,1709
20.9103,1756
20.9321,1822
20.9538,1795
20.9755,1815
20.9973,1772
21.019,1832
21.0407,1830
21.0625,1769
21.0842,1855
21.1059,1850
21.1277,1806
21.1494,1778
21.1711,1784
21.1929,1738
21.2146,1796
21.2363,1761
21.2581,1834
21.2798,1788
21.3015,1796
21.3233,1670
21.345,1798
21.3667,1740
21.3884,1737
21.4102,1787
21.4319,1692
21.4536,1767
21.4754,1682
21.4971,1722
21.5188,1744
21.5406,1759
21.5623,1651
21.584,1717
21.6058,1757
21.6275,1757
21.6492,1726
21.671,1687
21.6927,1725
21.7144,1730
21.7362,1692
21.7579,1627
21.7796,1628
21.8014,1635
21.8231,1661
21.8448,1711
21.8666,1734
21.8883,1683
21.91,1597
21.9318,1669
21.9535,1614
21.9752,1655
21.997,1670
22.0187,1638
22.0404,1694
22.0622,1620
22.0839,1725
22.1056,1683
22.1274,1647
22.1491,1717
22.1708,1577
22.1926,1641
22.2143,1640
22.236,1586
22.2578,1642
22.2795,1681
22.3012,1633
22.323,1717
22.3447,1650
22.3664,1675
22.3882,1675
22.4099,1625
22.4316,1611
22.4534,1667
22.4751,1641
22.4968,1676
22.5186,1692
22.5403,1661
22.562,1741
22.5838,1658
22.6055,1705
22.6272,1728
22.649,1678
22.6707,1782
22.6924,1749
22.7142,1693
22.7359,1776
22.7576,1796
22.7794,1763
22.8011,1743
22.8228,1747
22.8446,1758
22.8663,1866
22.888,1843
22.9098,1849
22.9315,1864
22.9532,1875
22.9749,1878
22.9967,1982
23.0184,1776
23.0401,1893
23.0619,1934
23.0836,1948
23.1053,1958
23.1271,1927
23.1488,2036
23.1705,1968
23.1923,1986
23.214,1953
23.2357,1883
23.2575,1851
23.2792,1908
23.3009,1962
23.3227,1944
23.3444,1896
23.3661,1832
23.3879,1871
23.4096,1949
23.4313,1888
23.4531,1843
23.4748,1965
23.4965,1897
23.5183,1920
23.54,1879
23.5617,1872
23.5835,1914
23.6052,1895
23.6269,1952
23.6487,1890
23.6704,1877
23.6921,1947
23.7139,1993
23.7356,1808
23.7573,1940
23.7791,2004
23.8008,2040
23.8225,2045
23.8443,2033
23.866,2006
23.8877,2128
23.9095,1851
23.9312,1846
23.9529,1885
23.9747,1964
23.9964,1795
24.0181,1843
24.0399,1787
24.0616,1852
24.0833,1926
24.1051,1865
24.1268,1830
24.1485,1871
24.1703,1972
24.192,1854
24.2137,1862
24.2355,1814
24.2572,1853
24.2789,1877
24.3007,1888
24.3224,1818
24.3441,1884
24.3659,1891
24.3876,1840
24.4093,1880
24.4311,1893
24.4528,1826
24.4745,1795
24.4963,1819
24.518,1754
24.5397,1816
24.5615,1805
24.5832,1870
24.6049,1840
24.6266,1845
24.6484,1858
24.6701,1915
24.6918,1919
24.7136,1910
24.7353,1830
24.757,1856
24.7788,1895
24.8005,1882
24.8222,1832
24.844,1846
24.8657,1891
24.8874,1906
24.9092,1954
24.9309,1937
24.9526,1929
24.9744,1844
24.9961,1910
25.0178,1944
25.0396,2014
25.0613,1921
25.083,1879
25.1048,1904
25.1265,1944
25.1482,2013
25.17,1951
25.1917,1863
25.2134,1897
25.2352,1871
25.2569,1806
25.2786,1882
25.3004,1921
25.3221,1875
25.3438,1872
25.3656,1869
25.3873,1841
25.409,1757
25.4308,1800
25.4525,1905
25.4742,1885
25.496,1868
25.5177,1857
25.5394,1834
25.5612,1812
25.5829,1781
25.6046,1845
25.6264,1829
25.6481,1823
25.6698,1826
25.6916,1847
25.7133,1849
25.735,1749
25.7568,1787
25.7785,1799
25.8002,1877
25.822,1821
25.8437,1833
25.8654,1817
25.8872,1812
25.9089,1814
25.9306,1920
25.9524,1867
25.9741,1806
25.9958,1835
26.0176,1833
26.0393,1808
26.061,1887
26.0828,1860
26.1045,1848
26.1262,1873
26.148,1863
26.1697,1818
26.1914,1787
26.2131,1820
26.2349,1853
26.2566,1869
26.2783,1856
26.3001,1823
26.3218,1908
26.3435,1873
26.3653,1859
26.387,1867
26.4087,1873
26.4305,1923
26.4522,1861
26.4739,1882
26.4957,1871
26.5174,1880
26.5391,1830
26.5609,1826
26.5826,1925
26.6043,1917
26.6261,1917
26.6478,1910
26.6695,1920
26.6913,1845
26.713,1805
26.7347,1949
26.7565,1927
26.7782,1931
26.7999,1877
26.8217,1967
26.8434,2011
26.8651,1870
26.8869,1902
26.9086,1973
26.9303,2076
26.9521,1960
26.9738,2013
26.9955,1985
27.0173,1980
27.039,1963
27.0607,1968
27.0825,1987
27.1042,1968
27.1259,2019
27.1477,2121
27.1694,2082
27.1911,2078
27.2129,2081
27.2346,1962
27.2563,1980
27.2781,2036
27.2998,2122
27.3215,2049
27.3433,2115
27.365,2063
27.3867,2107
27.4085,2122
27.4302,2086
27.4519,2091
27.4737,2106
27.4954,2138
27.5171,2151
27.5389,2187
27.5606,2156
27.5823,2154
27.6041,2238
27.6258,2227
27.6475,2201
27.6693,2144
27.691,2232
27.7127,2219
27.7345,2336
27.7562,2258
27.7779,2350
27.7996,2305
27.8214,2390
27.8431,2345
27.8648,2342
27.8866,2461
27.9083,2413
27.93,2463
27.9518,2455
27.9735,2537
27.9952,2572
28.017,2590
28.0387,2637
28.0604,2655
28.0822,2733
28.1039,2855
28.1256,2728
28.1474,2842
28.1691,2864
28.1908,2878
28.2126,2949
28.2343,3001
28.256,3102
28.2778,3063
28.2995,3241
28.3212,3279
28.343,3365
28.3647,3375
28.3864,3560
28.4082,3646
28.4299,3876
28.4516,3882
28.4734,3983
28.4951,4075
28.5168,4332
28.5386,4330
28.5603,4455
28.582,4757
28.6038,4914
28.6255,5137
28.6472,5477
28.669,5743
28.6907,6127
28.7124,6228
28.7342,6776
28.7559,7116
28.7776,7638
28.7994,8095
28.8211,8574
28.8428,9062
28.8646,9496
28.8863,9819
28.908,10198
28.9298,10626
28.9515,10962
28.9732,11187
28.995,10977
29.0167,11173
29.0384,11269
29.0602,10945
29.0819,10621
29.1036,10468
29.1254,9925
29.1471,9499
29.1688,9245
29.1906,8785
29.2123,8476
29.234,7968
29.2558,7701
29.2775,7454
29.2992,7027
29.321,6743
29.3427,6479
29.3644,6277
29.3861,6161
29.4079,5997
29.4296,5674
29.4513,5550
29.4731,5474
29.4948,5212
29.5165,5156
29.5383,5018
29.56,4828
29.5817,4758
29.6035,4636
29.6252,4636
29.6469,4483
29.6687,4370
29.6904,4235
29.7121,4227
29.7339,4172
29.7556,4263
29.7773,4207
29.7991,4127
29.8208,4015
29.8425,4064
29.8643,3952
29.886,3833
29.9077,3748
29.9295,3668
29.9512,3737
29.9729,3608
29.9947,3672