File: clay-plate-XRD-S2-2022/ENVT4461 S-15 Mg+Gly.csv
"Angle","Counts"
3.00243,26615
3.02417,25886
3.0459,25444
3.06763,25144
3.08936,24302
3.1111,24200
3.13283,23924
3.15456,23372
3.1763,23318
3.19803,22677
3.21976,22542
3.24149,22148
3.26323,21859
3.28496,21437
3.30669,21353
3.32843,21226
3.35016,20751
3.37189,20376
3.39363,20233
3.41536,20083
3.43709,20094
3.45882,19524
3.48056,19407
3.50229,19231
3.52402,18864
3.54576,19028
3.56749,18573
3.58922,18387
3.61095,18329
3.63269,18495
3.65442,18175
3.67615,17583
3.69789,17398
3.71962,17622
3.74135,17394
3.76308,17100
3.78482,17064
3.80655,16883
3.82828,16758
3.85002,16532
3.87175,16312
3.89348,16045
3.91521,16086
3.93695,16095
3.95868,16002
3.98041,15843
4.00215,15702
4.02388,15448
4.04561,15652
4.06734,15204
4.08908,15329
4.11081,14949
4.13254,15299
4.15428,14947
4.17601,14737
4.19774,14814
4.21947,14689
4.24121,15002
4.26294,14711
4.28467,14589
4.30641,14466
4.32814,14498
4.34987,14471
4.3716,14374
4.39334,14385
4.41507,14430
4.4368,14387
4.45854,14088
4.48027,14240
4.502,14092
4.52373,13981
4.54547,13933
4.5672,13980
4.58893,14101
4.61067,14248
4.6324,13580
4.65413,13943
4.67586,13714
4.6976,13834
4.71933,13885
4.74106,13567
4.7628,13717
4.78453,13457
4.80626,13716
4.828,13624
4.84973,13521
4.87146,13579
4.89319,13443
4.91493,13424
4.93666,13518
4.95839,13563
4.98013,13409
5.00186,13526
5.02359,13370
5.04532,13457
5.06706,13373
5.08879,13213
5.11052,13229
5.13226,13258
5.15399,13259
5.17572,13131
5.19745,13284
5.21919,13043
5.24092,13195
5.26265,13150
5.28439,12958
5.30612,13023
5.32785,13104
5.34958,13185
5.37132,13187
5.39305,12746
5.41478,13040
5.43652,12830
5.45825,12788
5.47998,12891
5.50171,13056
5.52345,12803
5.54518,12750
5.56691,12663
5.58865,12703
5.61038,12528
5.63211,12674
5.65384,12461
5.67558,12606
5.69731,12407
5.71904,12500
5.74078,12379
5.76251,12556
5.78424,12451
5.80597,12214
5.82771,12321
5.84944,12183
5.87117,12279
5.89291,12176
5.91464,12287
5.93637,12202
5.9581,12276
5.97984,12126
6.00157,12038
6.0233,12227
6.04504,12133
6.06677,11978
6.0885,11843
6.11024,11970
6.13197,11921
6.1537,11861
6.17543,12008
6.19717,11998
6.2189,11817
6.24063,11733
6.26237,11507
6.2841,11725
6.30583,11715
6.32756,11492
6.3493,11635
6.37103,11522
6.39276,11628
6.4145,11356
6.43623,11317
6.45796,11477
6.47969,11412
6.50143,11624
6.52316,11245
6.54489,11177
6.56663,11191
6.58836,11164
6.61009,11127
6.63182,11070
6.65356,11143
6.67529,10861
6.69702,11079
6.71876,11029
6.74049,11090
6.76222,10851
6.78395,10839
6.80569,10789
6.82742,11071
6.84915,10708
6.87089,10647
6.89262,10738
6.91435,10589
6.93608,10636
6.95782,10492
6.97955,10625
7.00128,10386
7.02302,10431
7.04475,10581
7.06648,10302
7.08821,10421
7.10995,10472
7.13168,10195
7.15341,10187
7.17515,10257
7.19688,10144
7.21861,10010
7.24034,9881
7.26208,10115
7.28381,9849
7.30554,9884
7.32728,9931
7.34901,9824
7.37074,9873
7.39247,9899
7.41421,9791
7.43594,9746
7.45767,9653
7.47941,9703
7.50114,9660
7.52287,9591
7.54461,9547
7.56634,9616
7.58807,9757
7.6098,9548
7.63154,9664
7.65327,9721
7.675,9456
7.69674,9408
7.71847,9332
7.7402,9336
7.76193,9271
7.78367,9188
7.8054,9504
7.82713,9312
7.84887,9373
7.8706,9279
7.89233,9174
7.91406,9136
7.9358,9032
7.95753,8975
7.97926,9169
8.001,9190
8.02273,9191
8.04446,8989
8.06619,9031
8.08793,9007
8.10966,9079
8.13139,9013
8.15313,9007
8.17486,8965
8.19659,8897
8.21832,8878
8.24006,8809
8.26179,8898
8.28352,8956
8.30526,8803
8.32699,8952
8.34872,8900
8.37045,8754
8.39219,8915
8.41392,9000
8.43565,8779
8.45739,8714
8.47912,8684
8.50085,8604
8.52258,8729
8.54432,8748
8.56605,8712
8.58778,8702
8.60952,8571
8.63125,8596
8.65298,8730
8.67471,8560
8.69645,8799
8.71818,8576
8.73991,8588
8.76165,8552
8.78338,8783
8.80511,8647
8.82685,8511
8.84858,8515
8.87031,8590
8.89204,8623
8.91378,8604
8.93551,8537
8.95724,8583
8.97898,8656
9.00071,8755
9.02244,8632
9.04417,8656
9.06591,8782
9.08764,8691
9.10937,8706
9.13111,8658
9.15284,8621
9.17457,8854
9.1963,8826
9.21804,8880
9.23977,8552
9.2615,8753
9.28324,8655
9.30497,8701
9.3267,8641
9.34843,8826
9.37017,8955
9.3919,8751
9.41363,8810
9.43537,8952
9.4571,8806
9.47883,8791
9.50056,8792
9.5223,8940
9.54403,8940
9.56576,8935
9.5875,9134
9.60923,9207
9.63096,9255
9.65269,9204
9.67443,9216
9.69616,9303
9.71789,9400
9.73963,9276
9.76136,9510
9.78309,9598
9.80482,9618
9.82656,9687
9.84829,9575
9.87002,9577
9.89176,9625
9.91349,9636
9.93522,9761
9.95695,9735
9.97869,9749
10.0004,9650
10.0222,9772
10.0439,9396
10.0656,9486
10.0874,9413
10.1091,9189
10.1308,9270
10.1526,9046
10.1743,8927
10.196,8965
10.2177,9015
10.2395,8908
10.2612,8851
10.2829,8789
10.3047,8639
10.3264,8789
10.3481,8663
10.3699,8642
10.3916,8549
10.4133,8472
10.4351,8486
10.4568,8567
10.4785,8637
10.5003,8552
10.522,8372
10.5437,8442
10.5655,8492
10.5872,8628
10.6089,8359
10.6307,8250
10.6524,8151
10.6741,8238
10.6959,8358
10.7176,8358
10.7393,8352
10.7611,8286
10.7828,8326
10.8045,8126
10.8263,8224
10.848,8029
10.8697,8038
10.8915,8205
10.9132,8178
10.9349,7980
10.9567,8214
10.9784,8070
11.0001,7969
11.0219,7965
11.0436,7945
11.0653,7966
11.0871,7933
11.1088,8060
11.1305,8088
11.1523,8023
11.174,8090
11.1957,7845
11.2175,8038
11.2392,7910
11.2609,7974
11.2827,7973
11.3044,7892
11.3261,7893
11.3479,7850
11.3696,7849
11.3913,7659
11.4131,7863
11.4348,7842
11.4565,7801
11.4783,7728
11.5,7599
11.5217,7745
11.5435,7832
11.5652,7842
11.5869,7776
11.6087,7775
11.6304,7672
11.6521,7814
11.6739,7726
11.6956,7613
11.7173,7717
11.7391,7869
11.7608,7716
11.7825,7712
11.8042,7781
11.826,7849
11.8477,7804
11.8694,7820
11.8912,7671
11.9129,7662
11.9346,7601
11.9564,7649
11.9781,7599
11.9998,7650
12.0216,7611
12.0433,7816
12.065,7723
12.0868,7544
12.1085,7907
12.1302,7839
12.152,7764
12.1737,7827
12.1954,7729
12.2172,7604
12.2389,7688
12.2606,7905
12.2824,7933
12.3041,7675
12.3258,7823
12.3476,7656
12.3693,7865
12.391,7981
12.4128,7774
12.4345,7971
12.4562,7708
12.478,8137
12.4997,7969
12.5214,8041
12.5432,8006
12.5649,8020
12.5866,7968
12.6084,8149
12.6301,8244
12.6518,8142
12.6736,8085
12.6953,8388
12.717,8490
12.7388,8289
12.7605,8539
12.7822,8432
12.804,8447
12.8257,8237
12.8474,8436
12.8692,8490
12.8909,8529
12.9126,8551
12.9344,8628
12.9561,8582
12.9778,8694
12.9996,8715
13.0213,9105
13.043,9074
13.0648,8987
13.0865,8950
13.1082,9169
13.13,9132
13.1517,9431
13.1734,9615
13.1952,9387
13.2169,9549
13.2386,9783
13.2604,9873
13.2821,10098
13.3038,10319
13.3256,10191
13.3473,10707
13.369,10830
13.3907,11151
13.4125,11199
13.4342,11365
13.4559,11612
13.4777,12163
13.4994,12288
13.5211,12498
13.5429,13150
13.5646,13491
13.5863,13773
13.6081,14447
13.6298,14629
13.6515,15401
13.6733,16155
13.695,16793
13.7167,17215
13.7385,18145
13.7602,18848
13.7819,19847
13.8037,20841
13.8254,21694
13.8471,22776
13.8689,23707
13.8906,24884
13.9123,25890
13.9341,27122
13.9558,28072
13.9775,28742
13.9993,29115
14.021,29587
14.0427,29380
14.0645,28876
14.0862,28153
14.1079,26288
14.1297,24658
14.1514,22929
14.1731,20547
14.1949,18786
14.2166,16829
14.2383,15456
14.2601,13992
14.2818,13113
14.3035,12115
14.3253,11347
14.347,10691
14.3687,10073
14.3905,9410
14.4122,9171
14.4339,8576
14.4557,8151
14.4774,8004
14.4991,7631
14.5209,7389
14.5426,7127
14.5643,6889
14.5861,6737
14.6078,6700
14.6295,6414
14.6513,6298
14.673,6012
14.6947,5924
14.7165,5789
14.7382,5651
14.7599,5568
14.7817,5392
14.8034,5346
14.8251,5365
14.8469,5188
14.8686,5121
14.8903,5122
14.9121,4946
14.9338,4874
14.9555,4762
14.9773,4804
14.999,4647
15.0207,4714
15.0424,4595
15.0642,4585
15.0859,4458
15.1076,4481
15.1294,4458
15.1511,4362
15.1728,4302
15.1946,4366
15.2163,4193
15.238,4304
15.2598,4192
15.2815,4140
15.3032,3945
15.325,4038
15.3467,4161
15.3684,4089
15.3902,3993
15.4119,4013
15.4336,3982
15.4554,4042
15.4771,3826
15.4988,3856
15.5206,3743
15.5423,3757
15.564,3724
15.5858,3579
15.6075,3739
15.6292,3552
15.651,3673
15.6727,3544
15.6944,3565
15.7162,3691
15.7379,3685
15.7596,3495
15.7814,3634
15.8031,3498
15.8248,3610
15.8466,3393
15.8683,3473
15.89,3429
15.9118,3331
15.9335,3372
15.9552,3457
15.977,3558
15.9987,3366
16.0204,3334
16.0422,3386
16.0639,3380
16.0856,3301
16.1074,3264
16.1291,3325
16.1508,3330
16.1726,3241
16.1943,3179
16.216,3306
16.2378,3253
16.2595,3230
16.2812,3333
16.303,3185
16.3247,3224
16.3464,3255
16.3682,3130
16.3899,3186
16.4116,3225
16.4334,3242
16.4551,3240
16.4768,3170
16.4986,3247
16.5203,3068
16.542,3145
16.5638,3143
16.5855,3116
16.6072,3109
16.6289,3015
16.6507,3069
16.6724,3023
16.6941,3073
16.7159,3077
16.7376,3023
16.7593,3017
16.7811,3029
16.8028,3095
16.8245,3003
16.8463,2962
16.868,2951
16.8897,2973
16.9115,3052
16.9332,2924
16.9549,2983
16.9767,3008
16.9984,2969
17.0201,2943
17.0419,2908
17.0636,2945
17.0853,3077
17.1071,2967
17.1288,2939
17.1505,2929
17.1723,2955
17.194,2910
17.2157,2936
17.2375,2830
17.2592,2917
17.2809,2814
17.3027,2829
17.3244,2923
17.3461,2827
17.3679,2836
17.3896,2919
17.4113,2824
17.4331,2830
17.4548,2823
17.4765,2836
17.4983,2765
17.52,2801
17.5417,2878
17.5635,2780
17.5852,2731
17.6069,2730
17.6287,2755
17.6504,2830
17.6721,2787
17.6939,2765
17.7156,2750
17.7373,2906
17.7591,2750
17.7808,2748
17.8025,2798
17.8243,2822
17.846,2752
17.8677,2753
17.8895,2637
17.9112,2756
17.9329,2592
17.9547,2681
17.9764,2692
17.9981,2759
18.0199,2786
18.0416,2844
18.0633,2738
18.0851,2658
18.1068,2659
18.1285,2659
18.1503,2755
18.172,2706
18.1937,2672
18.2154,2700
18.2372,2721
18.2589,2677
18.2806,2716
18.3024,2697
18.3241,2677
18.3458,2720
18.3676,2571
18.3893,2742
18.411,2623
18.4328,2623
18.4545,2712
18.4762,2630
18.498,2668
18.5197,2736
18.5414,2717
18.5632,2605
18.5849,2561
18.6066,2615
18.6284,2691
18.6501,2615
18.6718,2663
18.6936,2666
18.7153,2655
18.737,2650
18.7588,2663
18.7805,2750
18.8022,2588
18.824,2632
18.8457,2699
18.8674,2674
18.8892,2570
18.9109,2517
18.9326,2598
18.9544,2581
18.9761,2654
18.9978,2682
19.0196,2649
19.0413,2633
19.063,2619
19.0848,2659
19.1065,2687
19.1282,2680
19.15,2662
19.1717,2753
19.1934,2635
19.2152,2659
19.2369,2679
19.2586,2582
19.2804,2627
19.3021,2659
19.3238,2662
19.3456,2557
19.3673,2587
19.389,2671
19.4108,2583
19.4325,2632
19.4542,2641
19.476,2596
19.4977,2632
19.5194,2551
19.5412,2510
19.5629,2541
19.5846,2667
19.6064,2743
19.6281,2664
19.6498,2586
19.6716,2579
19.6933,2663
19.715,2538
19.7368,2606
19.7585,2712
19.7802,2655
19.8019,2727
19.8237,2555
19.8454,2616
19.8671,2549
19.8889,2638
19.9106,2711
19.9323,2710
19.9541,2656
19.9758,2723
19.9975,2723
20.0193,2707
20.041,2824
20.0627,2766
20.0845,2837
20.1062,2740
20.1279,2807
20.1497,2768
20.1714,2742
20.1931,2901
20.2149,2922
20.2366,2791
20.2583,2903
20.2801,2900
20.3018,2892
20.3235,2880
20.3453,2964
20.367,3024
20.3887,2929
20.4105,2914
20.4322,2794
20.4539,2902
20.4757,2809
20.4974,2809
20.5191,2686
20.5409,2782
20.5626,2813
20.5843,2774
20.6061,2805
20.6278,2768
20.6495,2693
20.6713,2698
20.693,2742
20.7147,2762
20.7365,2789
20.7582,2717
20.7799,2782
20.8017,2736
20.8234,2670
20.8451,2728
20.8669,2716
20.8886,2810
20.9103,2715
20.9321,2744
20.9538,2695
20.9755,2844
20.9973,2770
21.019,2796
21.0407,2822
21.0625,2816
21.0842,2764
21.1059,2696
21.1277,2693
21.1494,2740
21.1711,2687
21.1929,2656
21.2146,2642
21.2363,2492
21.2581,2562
21.2798,2641
21.3015,2587
21.3233,2554
21.345,2605
21.3667,2705
21.3884,2648
21.4102,2558
21.4319,2576
21.4536,2756
21.4754,2704
21.4971,2677
21.5188,2619
21.5406,2546
21.5623,2582
21.584,2603
21.6058,2613
21.6275,2642
21.6492,2639
21.671,2655
21.6927,2647
21.7144,2628
21.7362,2629
21.7579,2578
21.7796,2591
21.8014,2523
21.8231,2650
21.8448,2623
21.8666,2680
21.8883,2615
21.91,2665
21.9318,2625
21.9535,2633
21.9752,2672
21.997,2600
22.0187,2561
22.0404,2617
22.0622,2601
22.0839,2551
22.1056,2648
22.1274,2696
22.1491,2710
22.1708,2751
22.1926,2650
22.2143,2743
22.236,2647
22.2578,2727
22.2795,2751
22.3012,2691
22.323,2754
22.3447,2725
22.3664,2769
22.3882,2764
22.4099,2918
22.4316,2969
22.4534,2965
22.4751,2927
22.4968,3058
22.5186,3133
22.5403,3153
22.562,3075
22.5838,3045
22.6055,3253
22.6272,3182
22.649,3239
22.6707,3445
22.6924,3378
22.7142,3310
22.7359,3365
22.7576,3470
22.7794,3512
22.8011,3603
22.8228,3574
22.8446,3545
22.8663,3590
22.888,3566
22.9098,3567
22.9315,3528
22.9532,3479
22.9749,3549
22.9967,3485
23.0184,3377
23.0401,3440
23.0619,3473
23.0836,3318
23.1053,3356
23.1271,3475
23.1488,3431
23.1705,3393
23.1923,3374
23.214,3332
23.2357,3457
23.2575,3348
23.2792,3278
23.3009,3408
23.3227,3161
23.3444,3381
23.3661,3439
23.3879,3367
23.4096,3289
23.4313,3450
23.4531,3304
23.4748,3398
23.4965,3251
23.5183,3250
23.54,3311
23.5617,3328
23.5835,3183
23.6052,3244
23.6269,3267
23.6487,3152
23.6704,3263
23.6921,3153
23.7139,3249
23.7356,3269
23.7573,3304
23.7791,3163
23.8008,3243
23.8225,3208
23.8443,3349
23.866,3214
23.8877,3426
23.9095,3369
23.9312,3253
23.9529,3346
23.9747,3424
23.9964,3387
24.0181,3382
24.0399,3354
24.0616,3304
24.0833,3136
24.1051,3101
24.1268,3323
24.1485,3314
24.1703,3282
24.192,3310
24.2137,3276
24.2355,3303
24.2572,3301
24.2789,3270
24.3007,3177
24.3224,3286
24.3441,3275
24.3659,3215
24.3876,3212
24.4093,3289
24.4311,3228
24.4528,3285
24.4745,3198
24.4963,3318
24.518,3304
24.5397,3301
24.5615,3233
24.5832,3171
24.6049,3182
24.6266,3252
24.6484,3204
24.6701,3167
24.6918,3273
24.7136,3253
24.7353,3214
24.757,3119
24.7788,3221
24.8005,3315
24.8222,3201
24.844,3094
24.8657,3260
24.8874,3193
24.9092,3160
24.9309,3120
24.9526,3182
24.9744,3163
24.9961,3209
25.0178,3066
25.0396,3065
25.0613,3225
25.083,3097
25.1048,3076
25.1265,3294
25.1482,3173
25.17,3195
25.1917,3175
25.2134,3188
25.2352,3109
25.2569,3204
25.2786,3091
25.3004,3219
25.3221,3136
25.3438,3213
25.3656,3245
25.3873,3289
25.409,3093
25.4308,3109
25.4525,3130
25.4742,3202
25.496,3166
25.5177,3076
25.5394,3148
25.5612,3165
25.5829,3121
25.6046,3201
25.6264,3205
25.6481,3248
25.6698,3209
25.6916,3141
25.7133,3139
25.735,3212
25.7568,3122
25.7785,3243
25.8002,3192
25.822,3152
25.8437,3252
25.8654,3395
25.8872,3300
25.9089,3215
25.9306,3361
25.9524,3294
25.9741,3314
25.9958,3310
26.0176,3219
26.0393,3227
26.061,3107
26.0828,3284
26.1045,3227
26.1262,3307
26.148,3237
26.1697,3231
26.1914,3221
26.2131,3308
26.2349,3279
26.2566,3199
26.2783,3156
26.3001,3294
26.3218,3404
26.3435,3259
26.3653,3240
26.387,3319
26.4087,3384
26.4305,3431
26.4522,3355
26.4739,3325
26.4957,3214
26.5174,3374
26.5391,3378
26.5609,3324
26.5826,3442
26.6043,3555
26.6261,3433
26.6478,3360
26.6695,3355
26.6913,3435
26.713,3430
26.7347,3440
26.7565,3365
26.7782,3445
26.7999,3387
26.8217,3482
26.8434,3463
26.8651,3389
26.8869,3406
26.9086,3549
26.9303,3519
26.9521,3505
26.9738,3533
26.9955,3550
27.0173,3511
27.039,3547
27.0607,3542
27.0825,3608
27.1042,3607
27.1259,3608
27.1477,3654
27.1694,3603
27.1911,3656
27.2129,3670
27.2346,3635
27.2563,3723
27.2781,3841
27.2998,3733
27.3215,3834
27.3433,3804
27.365,3793
27.3867,3898
27.4085,3960
27.4302,3992
27.4519,3974
27.4737,3986
27.4954,3914
27.5171,3996
27.5389,3991
27.5606,4060
27.5823,4181
27.6041,4115
27.6258,4284
27.6475,4079
27.6693,4358
27.691,4272
27.7127,4485
27.7345,4466
27.7562,4419
27.7779,4601
27.7996,4534
27.8214,4692
27.8431,4860
27.8648,4862
27.8866,4896
27.9083,5076
27.93,5117
27.9518,5126
27.9735,5240
27.9952,5453
28.017,5356
28.0387,5670
28.0604,5757
28.0822,5754
28.1039,5889
28.1256,6098
28.1474,6282
28.1691,6462
28.1908,6731
28.2126,6965
28.2343,7257
28.256,7457
28.2778,7700
28.2995,8054
28.3212,8408
28.343,8730
28.3647,8978
28.3864,9650
28.4082,10222
28.4299,10799
28.4516,11515
28.4734,12218
28.4951,12994
28.5168,13991
28.5386,15138
28.5603,16206
28.582,17373
28.6038,18611
28.6255,19949
28.6472,21184
28.669,21907
28.6907,22160
28.7124,22200
28.7342,21487
28.7559,20425
28.7776,19517
28.7994,18302
28.8211,16853
28.8428,15641
28.8646,14621
28.8863,13774
28.908,13065
28.9298,11902
28.9515,11838
28.9732,11190
28.995,10815
29.0167,10355
29.0384,9897
29.0602,9531
29.0819,9475
29.1036,9134
29.1254,9044
29.1471,8852
29.1688,8451
29.1906,8450
29.2123,7959
29.234,8095
29.2558,7644
29.2775,7605
29.2992,7557
29.321,7404
29.3427,7044
29.3644,6995
29.3861,6873
29.4079,6707
29.4296,6634
29.4513,6695
29.4731,6631
29.4948,6559
29.5165,6340
29.5383,6240
29.56,6101
29.5817,6160
29.6035,5952
29.6252,5920
29.6469,5913
29.6687,5773
29.6904,5539
29.7121,5589
29.7339,5674
29.7556,5750
29.7773,5566
29.7991,5485
29.8208,5520
29.8425,5521
29.8643,5470
29.886,5500
29.9077,5248
29.9295,5254
29.9512,5266
29.9729,5207
29.9947,5123