File: clay-plate-XRD-S2-2022/ENVT4461 S-16 Mg EY 8mins.csv
"Angle","Counts"
3.00243,25900
3.02417,24985
3.0459,24538
3.06763,23930
3.08936,23567
3.1111,23155
3.13283,22593
3.15456,22045
3.1763,21637
3.19803,21315
3.21976,20887
3.24149,20363
3.26323,19793
3.28496,19483
3.30669,19215
3.32843,18812
3.35016,18161
3.37189,17864
3.39363,17592
3.41536,17364
3.43709,16731
3.45882,16912
3.48056,16522
3.50229,16191
3.52402,15725
3.54576,15683
3.56749,15327
3.58922,14992
3.61095,14549
3.63269,14938
3.65442,14407
3.67615,14148
3.69789,14149
3.71962,13994
3.74135,13544
3.76308,13596
3.78482,13491
3.80655,13154
3.82828,13084
3.85002,13081
3.87175,12750
3.89348,12659
3.91521,12344
3.93695,12161
3.95868,12205
3.98041,11926
4.00215,11836
4.02388,11642
4.04561,11588
4.06734,11553
4.08908,11482
4.11081,11238
4.13254,11346
4.15428,11083
4.17601,10969
4.19774,10949
4.21947,10986
4.24121,10712
4.26294,10660
4.28467,10704
4.30641,10663
4.32814,10334
4.34987,10453
4.3716,10208
4.39334,10284
4.41507,10335
4.4368,9965
4.45854,10025
4.48027,10163
4.502,10234
4.52373,10107
4.54547,10044
4.5672,10090
4.58893,9883
4.61067,9934
4.6324,9804
4.65413,10052
4.67586,9878
4.6976,9828
4.71933,9866
4.74106,9827
4.7628,9840
4.78453,9995
4.80626,9769
4.828,9786
4.84973,9751
4.87146,9884
4.89319,9918
4.91493,9826
4.93666,9838
4.95839,10042
4.98013,9908
5.00186,9826
5.02359,9885
5.04532,9827
5.06706,9982
5.08879,10184
5.11052,10193
5.13226,10146
5.15399,9935
5.17572,10176
5.19745,10226
5.21919,10218
5.24092,10285
5.26265,10048
5.28439,10030
5.30612,10283
5.32785,10436
5.34958,10695
5.37132,10294
5.39305,10499
5.41478,10622
5.43652,10692
5.45825,10552
5.47998,10820
5.50171,10745
5.52345,10623
5.54518,10622
5.56691,10770
5.58865,10958
5.61038,11029
5.63211,10939
5.65384,10866
5.67558,11196
5.69731,11150
5.71904,10972
5.74078,11277
5.76251,11119
5.78424,11485
5.80597,11386
5.82771,11559
5.84944,11331
5.87117,11514
5.89291,11407
5.91464,11664
5.93637,11316
5.9581,11655
5.97984,11735
6.00157,11763
6.0233,11569
6.04504,11594
6.06677,11718
6.0885,11851
6.11024,11801
6.13197,11895
6.1537,11944
6.17543,11943
6.19717,11908
6.2189,12018
6.24063,12060
6.26237,11987
6.2841,12040
6.30583,11913
6.32756,12190
6.3493,12234
6.37103,11878
6.39276,12300
6.4145,11940
6.43623,12116
6.45796,12091
6.47969,12130
6.50143,12153
6.52316,12252
6.54489,11952
6.56663,12081
6.58836,12024
6.61009,12070
6.63182,12097
6.65356,12126
6.67529,12069
6.69702,12190
6.71876,12043
6.74049,11856
6.76222,12078
6.78395,11886
6.80569,12182
6.82742,11998
6.84915,11935
6.87089,11764
6.89262,11817
6.91435,11766
6.93608,11926
6.95782,11587
6.97955,11786
7.00128,11780
7.02302,11605
7.04475,11469
7.06648,11585
7.08821,11559
7.10995,11544
7.13168,11322
7.15341,11493
7.17515,11494
7.19688,11497
7.21861,11610
7.24034,11418
7.26208,11424
7.28381,11391
7.30554,11264
7.32728,11166
7.34901,11234
7.37074,11289
7.39247,11157
7.41421,11084
7.43594,10907
7.45767,11019
7.47941,11084
7.50114,10894
7.52287,10866
7.54461,10969
7.56634,10748
7.58807,10820
7.6098,10835
7.63154,10811
7.65327,10758
7.675,10744
7.69674,10614
7.71847,10571
7.7402,10543
7.76193,10340
7.78367,10422
7.8054,10516
7.82713,10269
7.84887,10539
7.8706,10157
7.89233,10371
7.91406,10040
7.9358,10127
7.95753,10397
7.97926,10054
8.001,10110
8.02273,10071
8.04446,9881
8.06619,9992
8.08793,9875
8.10966,10087
8.13139,9867
8.15313,10093
8.17486,9745
8.19659,9874
8.21832,9689
8.24006,9838
8.26179,9723
8.28352,9805
8.30526,9787
8.32699,9689
8.34872,9726
8.37045,9646
8.39219,9596
8.41392,9543
8.43565,9465
8.45739,9576
8.47912,9616
8.50085,9696
8.52258,9357
8.54432,9575
8.56605,9453
8.58778,9453
8.60952,9486
8.63125,9281
8.65298,9374
8.67471,9364
8.69645,9385
8.71818,9278
8.73991,9272
8.76165,9262
8.78338,9179
8.80511,9261
8.82685,9197
8.84858,9167
8.87031,9243
8.89204,9057
8.91378,9143
8.93551,9285
8.95724,9153
8.97898,9070
9.00071,9212
9.02244,9133
9.04417,8989
9.06591,9012
9.08764,9215
9.10937,8982
9.13111,9004
9.15284,9000
9.17457,9045
9.1963,9063
9.21804,9111
9.23977,8987
9.2615,9000
9.28324,9131
9.30497,9065
9.3267,9152
9.34843,8910
9.37017,8995
9.3919,9099
9.41363,8891
9.43537,9106
9.4571,9186
9.47883,9248
9.50056,9050
9.5223,9332
9.54403,9193
9.56576,9253
9.5875,9169
9.60923,9042
9.63096,9249
9.65269,9352
9.67443,9391
9.69616,9401
9.71789,9469
9.73963,9312
9.76136,9471
9.78309,9477
9.80482,9414
9.82656,9373
9.84829,9472
9.87002,9419
9.89176,9310
9.91349,9435
9.93522,9157
9.95695,9180
9.97869,9069
10.0004,9129
10.0222,8901
10.0439,8849
10.0656,8825
10.0874,8822
10.1091,8582
10.1308,8569
10.1526,8313
10.1743,8506
10.196,8629
10.2177,8564
10.2395,8105
10.2612,8344
10.2829,8342
10.3047,8154
10.3264,8101
10.3481,8078
10.3699,8069
10.3916,8063
10.4133,7994
10.4351,8058
10.4568,8081
10.4785,7997
10.5003,7897
10.522,7870
10.5437,8085
10.5655,7901
10.5872,7778
10.6089,7788
10.6307,7918
10.6524,7799
10.6741,7697
10.6959,7671
10.7176,7537
10.7393,7635
10.7611,7603
10.7828,7575
10.8045,7481
10.8263,7561
10.848,7730
10.8697,7582
10.8915,7471
10.9132,7470
10.9349,7494
10.9567,7313
10.9784,7326
11.0001,7512
11.0219,7529
11.0436,7369
11.0653,7300
11.0871,7410
11.1088,7319
11.1305,7222
11.1523,7353
11.174,7263
11.1957,7225
11.2175,7592
11.2392,7339
11.2609,7294
11.2827,7325
11.3044,7155
11.3261,7223
11.3479,7267
11.3696,7343
11.3913,7331
11.4131,7096
11.4348,7176
11.4565,7320
11.4783,6948
11.5,7130
11.5217,7089
11.5435,7021
11.5652,7280
11.5869,7191
11.6087,7258
11.6304,7212
11.6521,7213
11.6739,7364
11.6956,7180
11.7173,7307
11.7391,7157
11.7608,7340
11.7825,7289
11.8042,7255
11.826,7276
11.8477,7190
11.8694,7262
11.8912,7291
11.9129,7180
11.9346,7200
11.9564,7276
11.9781,7334
11.9998,7317
12.0216,7415
12.0433,7409
12.065,7429
12.0868,7346
12.1085,7280
12.1302,7439
12.152,7292
12.1737,7568
12.1954,7557
12.2172,7535
12.2389,7381
12.2606,7477
12.2824,7509
12.3041,7475
12.3258,7761
12.3476,7707
12.3693,7695
12.391,7741
12.4128,7919
12.4345,7697
12.4562,7806
12.478,7868
12.4997,7969
12.5214,8113
12.5432,8043
12.5649,8011
12.5866,8050
12.6084,8182
12.6301,7973
12.6518,8195
12.6736,8221
12.6953,8263
12.717,8392
12.7388,8390
12.7605,8377
12.7822,8563
12.804,8447
12.8257,8627
12.8474,8845
12.8692,8886
12.8909,8932
12.9126,8980
12.9344,8859
12.9561,9168
12.9778,9346
12.9996,9389
13.0213,9596
13.043,9597
13.0648,9528
13.0865,9841
13.1082,9907
13.13,10123
13.1517,10209
13.1734,10609
13.1952,10639
13.2169,10964
13.2386,10980
13.2604,11202
13.2821,11361
13.3038,11697
13.3256,12013
13.3473,12273
13.369,12578
13.3907,12956
13.4125,13287
13.4342,13572
13.4559,14115
13.4777,14671
13.4994,15293
13.5211,15883
13.5429,16266
13.5646,16882
13.5863,17719
13.6081,18413
13.6298,19475
13.6515,20315
13.6733,21131
13.695,22272
13.7167,23229
13.7385,24362
13.7602,25354
13.7819,26833
13.8037,28127
13.8254,29460
13.8471,30661
13.8689,31398
13.8906,32079
13.9123,33190
13.9341,33512
13.9558,33840
13.9775,33312
13.9993,32034
14.021,30776
14.0427,28969
14.0645,26913
14.0862,24668
14.1079,22123
14.1297,20247
14.1514,18502
14.1731,16675
14.1949,15489
14.2166,14382
14.2383,13114
14.2601,12468
14.2818,11684
14.3035,10925
14.3253,10453
14.347,9977
14.3687,9380
14.3905,8994
14.4122,8545
14.4339,8222
14.4557,7887
14.4774,7521
14.4991,7170
14.5209,7032
14.5426,6594
14.5643,6583
14.5861,6478
14.6078,6449
14.6295,6047
14.6513,5923
14.673,5877
14.6947,5726
14.7165,5711
14.7382,5637
14.7599,5512
14.7817,5504
14.8034,5157
14.8251,5136
14.8469,5067
14.8686,5066
14.8903,4872
14.9121,4930
14.9338,4907
14.9555,4684
14.9773,4821
14.999,4589
15.0207,4590
15.0424,4518
15.0642,4386
15.0859,4399
15.1076,4417
15.1294,4336
15.1511,4149
15.1728,4257
15.1946,4182
15.2163,4340
15.238,4124
15.2598,4031
15.2815,4046
15.3032,3927
15.325,3990
15.3467,4044
15.3684,3932
15.3902,3903
15.4119,3853
15.4336,3764
15.4554,3822
15.4771,3679
15.4988,3804
15.5206,3711
15.5423,3740
15.564,3654
15.5858,3654
15.6075,3615
15.6292,3636
15.651,3668
15.6727,3587
15.6944,3639
15.7162,3637
15.7379,3463
15.7596,3478
15.7814,3431
15.8031,3539
15.8248,3617
15.8466,3506
15.8683,3598
15.89,3550
15.9118,3441
15.9335,3462
15.9552,3498
15.977,3488
15.9987,3451
16.0204,3402
16.0422,3463
16.0639,3339
16.0856,3317
16.1074,3443
16.1291,3366
16.1508,3478
16.1726,3391
16.1943,3305
16.216,3266
16.2378,3189
16.2595,3227
16.2812,3159
16.303,3166
16.3247,3093
16.3464,3232
16.3682,3126
16.3899,3131
16.4116,3051
16.4334,3142
16.4551,3104
16.4768,3119
16.4986,3053
16.5203,3028
16.542,3085
16.5638,3087
16.5855,2988
16.6072,2994
16.6289,3052
16.6507,3041
16.6724,3088
16.6941,2959
16.7159,3032
16.7376,2906
16.7593,2967
16.7811,3021
16.8028,3043
16.8245,2957
16.8463,2996
16.868,2951
16.8897,2939
16.9115,2894
16.9332,2927
16.9549,2956
16.9767,2787
16.9984,2870
17.0201,2944
17.0419,2883
17.0636,2896
17.0853,2940
17.1071,2731
17.1288,2877
17.1505,2866
17.1723,2926
17.194,2839
17.2157,2817
17.2375,2839
17.2592,2849
17.2809,2891
17.3027,2920
17.3244,2754
17.3461,2888
17.3679,2889
17.3896,2869
17.4113,2741
17.4331,2785
17.4548,2798
17.4765,2860
17.4983,2888
17.52,2728
17.5417,2798
17.5635,2758
17.5852,2798
17.6069,2754
17.6287,2850
17.6504,2729
17.6721,2743
17.6939,2846
17.7156,2830
17.7373,2729
17.7591,2789
17.7808,2783
17.8025,2874
17.8243,2816
17.846,2711
17.8677,2813
17.8895,2654
17.9112,2838
17.9329,2894
17.9547,2801
17.9764,2782
17.9981,2792
18.0199,2878
18.0416,2842
18.0633,2751
18.0851,2641
18.1068,2724
18.1285,2785
18.1503,2745
18.172,2809
18.1937,2813
18.2154,2665
18.2372,2626
18.2589,2714
18.2806,2700
18.3024,2736
18.3241,2722
18.3458,2730
18.3676,2706
18.3893,2849
18.411,2863
18.4328,2711
18.4545,2775
18.4762,2762
18.498,2753
18.5197,2775
18.5414,2755
18.5632,2761
18.5849,2786
18.6066,2700
18.6284,2817
18.6501,2763
18.6718,2783
18.6936,2735
18.7153,2716
18.737,2836
18.7588,2802
18.7805,2827
18.8022,2800
18.824,2663
18.8457,2686
18.8674,2661
18.8892,2684
18.9109,2715
18.9326,2787
18.9544,2774
18.9761,2739
18.9978,2835
19.0196,2694
19.0413,2709
19.063,2699
19.0848,2747
19.1065,2765
19.1282,2667
19.15,2797
19.1717,2678
19.1934,2752
19.2152,2869
19.2369,2655
19.2586,2756
19.2804,2595
19.3021,2729
19.3238,2756
19.3456,2775
19.3673,2767
19.389,2844
19.4108,2814
19.4325,2865
19.4542,2805
19.476,2785
19.4977,2753
19.5194,2720
19.5412,2834
19.5629,2769
19.5846,2805
19.6064,2690
19.6281,2792
19.6498,2747
19.6716,2806
19.6933,2815
19.715,2837
19.7368,2729
19.7585,2780
19.7802,2818
19.8019,2822
19.8237,2772
19.8454,2840
19.8671,2813
19.8889,2831
19.9106,2871
19.9323,2841
19.9541,2855
19.9758,2849
19.9975,2860
20.0193,2879
20.041,2888
20.0627,2875
20.0845,2898
20.1062,2977
20.1279,2967
20.1497,3010
20.1714,2913
20.1931,2959
20.2149,2969
20.2366,2977
20.2583,2839
20.2801,2959
20.3018,2954
20.3235,2962
20.3453,2971
20.367,2991
20.3887,2869
20.4105,2917
20.4322,2838
20.4539,2841
20.4757,2831
20.4974,2788
20.5191,2834
20.5409,2824
20.5626,2735
20.5843,2830
20.6061,2764
20.6278,2810
20.6495,2706
20.6713,2762
20.693,2710
20.7147,2765
20.7365,2708
20.7582,2659
20.7799,2730
20.8017,2724
20.8234,2707
20.8451,2699
20.8669,2676
20.8886,2753
20.9103,2765
20.9321,2754
20.9538,2715
20.9755,2723
20.9973,2622
21.019,2609
21.0407,2528
21.0625,2628
21.0842,2618
21.1059,2682
21.1277,2600
21.1494,2564
21.1711,2536
21.1929,2478
21.2146,2587
21.2363,2592
21.2581,2460
21.2798,2526
21.3015,2522
21.3233,2501
21.345,2448
21.3667,2472
21.3884,2475
21.4102,2495
21.4319,2506
21.4536,2471
21.4754,2574
21.4971,2488
21.5188,2404
21.5406,2495
21.5623,2400
21.584,2533
21.6058,2301
21.6275,2382
21.6492,2453
21.671,2385
21.6927,2420
21.7144,2431
21.7362,2459
21.7579,2432
21.7796,2355
21.8014,2409
21.8231,2507
21.8448,2435
21.8666,2436
21.8883,2341
21.91,2475
21.9318,2401
21.9535,2395
21.9752,2432
21.997,2444
22.0187,2437
22.0404,2391
22.0622,2453
22.0839,2435
22.1056,2423
22.1274,2464
22.1491,2411
22.1708,2478
22.1926,2486
22.2143,2542
22.236,2465
22.2578,2477
22.2795,2517
22.3012,2544
22.323,2550
22.3447,2563
22.3664,2707
22.3882,2659
22.4099,2607
22.4316,2585
22.4534,2643
22.4751,2712
22.4968,2675
22.5186,2688
22.5403,2767
22.562,2829
22.5838,2829
22.6055,2832
22.6272,2741
22.649,2924
22.6707,2844
22.6924,2873
22.7142,2974
22.7359,3017
22.7576,2833
22.7794,2804
22.8011,2907
22.8228,2905
22.8446,2833
22.8663,2856
22.888,2824
22.9098,2781
22.9315,2855
22.9532,2847
22.9749,2768
22.9967,2814
23.0184,2861
23.0401,2782
23.0619,2806
23.0836,2825
23.1053,2772
23.1271,2764
23.1488,2752
23.1705,2813
23.1923,2747
23.214,2796
23.2357,2751
23.2575,2646
23.2792,2731
23.3009,2624
23.3227,2672
23.3444,2777
23.3661,2744
23.3879,2717
23.4096,2735
23.4313,2582
23.4531,2668
23.4748,2716
23.4965,2746
23.5183,2678
23.54,2678
23.5617,2832
23.5835,2676
23.6052,2686
23.6269,2752
23.6487,2695
23.6704,2790
23.6921,2770
23.7139,2862
23.7356,2794
23.7573,2814
23.7791,2991
23.8008,2937
23.8225,2981
23.8443,3008
23.866,2939
23.8877,3042
23.9095,2932
23.9312,2946
23.9529,2836
23.9747,2803
23.9964,2804
24.0181,2712
24.0399,2710
24.0616,2740
24.0833,2827
24.1051,2670
24.1268,2705
24.1485,2717
24.1703,2656
24.192,2771
24.2137,2794
24.2355,2679
24.2572,2693
24.2789,2774
24.3007,2654
24.3224,2685
24.3441,2700
24.3659,2619
24.3876,2712
24.4093,2715
24.4311,2791
24.4528,2765
24.4745,2786
24.4963,2693
24.518,2674
24.5397,2730
24.5615,2792
24.5832,2838
24.6049,2668
24.6266,2645
24.6484,2745
24.6701,2666
24.6918,2653
24.7136,2634
24.7353,2770
24.757,2766
24.7788,2771
24.8005,2645
24.8222,2657
24.844,2752
24.8657,2767
24.8874,2669
24.9092,2830
24.9309,2733
24.9526,2802
24.9744,2832
24.9961,2811
25.0178,2864
25.0396,2913
25.0613,2910
25.083,2910
25.1048,2981
25.1265,2907
25.1482,2921
25.17,2929
25.1917,2885
25.2134,2922
25.2352,2952
25.2569,2846
25.2786,2808
25.3004,2821
25.3221,2686
25.3438,2807
25.3656,2631
25.3873,2656
25.409,2726
25.4308,2654
25.4525,2687
25.4742,2664
25.496,2746
25.5177,2814
25.5394,2875
25.5612,2656
25.5829,2766
25.6046,2727
25.6264,2701
25.6481,2719
25.6698,2688
25.6916,2843
25.7133,2760
25.735,2854
25.7568,2822
25.7785,2842
25.8002,2789
25.822,2825
25.8437,2761
25.8654,2771
25.8872,2814
25.9089,2841
25.9306,2776
25.9524,2810
25.9741,2773
25.9958,2766
26.0176,2801
26.0393,2786
26.061,2793
26.0828,2853
26.1045,2770
26.1262,2665
26.148,2809
26.1697,2706
26.1914,2748
26.2131,2813
26.2349,2910
26.2566,2859
26.2783,2774
26.3001,2880
26.3218,2815
26.3435,2876
26.3653,2881
26.387,2941
26.4087,2861
26.4305,2932
26.4522,2965
26.4739,2980
26.4957,2991
26.5174,2935
26.5391,2988
26.5609,2798
26.5826,2940
26.6043,2997
26.6261,3048
26.6478,3001
26.6695,2959
26.6913,2913
26.713,3025
26.7347,3057
26.7565,2999
26.7782,3023
26.7999,3079
26.8217,3100
26.8434,3046
26.8651,3058
26.8869,3180
26.9086,3153
26.9303,3108
26.9521,3163
26.9738,3115
26.9955,3194
27.0173,3231
27.039,3175
27.0607,3191
27.0825,3136
27.1042,3290
27.1259,3298
27.1477,3308
27.1694,3415
27.1911,3285
27.2129,3356
27.2346,3408
27.2563,3497
27.2781,3562
27.2998,3546
27.3215,3655
27.3433,3566
27.365,3678
27.3867,3754
27.4085,3677
27.4302,3744
27.4519,3661
27.4737,3707
27.4954,3643
27.5171,3910
27.5389,3881
27.5606,3919
27.5823,4027
27.6041,4229
27.6258,4156
27.6475,4195
27.6693,4268
27.691,4384
27.7127,4291
27.7345,4521
27.7562,4661
27.7779,4708
27.7996,4752
27.8214,4902
27.8431,4996
27.8648,5041
27.8866,5071
27.9083,5424
27.93,5410
27.9518,5662
27.9735,5910
27.9952,5904
28.017,6067
28.0387,6213
28.0604,6413
28.0822,6676
28.1039,6932
28.1256,7062
28.1474,7372
28.1691,7690
28.1908,8080
28.2126,8570
28.2343,8727
28.256,9214
28.2778,9775
28.2995,10363
28.3212,10916
28.343,11536
28.3647,12217
28.3864,13327
28.4082,14212
28.4299,15196
28.4516,16310
28.4734,17214
28.4951,18916
28.5168,20292
28.5386,21469
28.5603,22482
28.582,23624
28.6038,24203
28.6255,24625
28.6472,23962
28.669,23436
28.6907,22385
28.7124,21096
28.7342,19897
28.7559,18535
28.7776,17191
28.7994,16142
28.8211,14981
28.8428,14431
28.8646,13547
28.8863,12785
28.908,12109
28.9298,11554
28.9515,11212
28.9732,10717
28.995,10222
29.0167,10041
29.0384,9664
29.0602,9352
29.0819,9258
29.1036,8774
29.1254,8594
29.1471,8392
29.1688,8076
29.1906,7976
29.2123,7780
29.234,7840
29.2558,7508
29.2775,7386
29.2992,7195
29.321,7036
29.3427,7095
29.3644,7001
29.3861,6957
29.4079,6680
29.4296,6464
29.4513,6471
29.4731,6543
29.4948,6474
29.5165,6159
29.5383,6146
29.56,6186
29.5817,6154
29.6035,6014
29.6252,5969
29.6469,5901
29.6687,5948
29.6904,5971
29.7121,5824
29.7339,5810
29.7556,5651
29.7773,5753
29.7991,5609
29.8208,5654
29.8425,5694
29.8643,5667
29.886,5662
29.9077,5505
29.9295,5576
29.9512,5478
29.9729,5581
29.9947,5435