File: clay-plate-XRD-S2-2022/ENVT4461 S-12 Heated-400.csv
"Angle","Counts"
3.00243,24683
3.02417,24575
3.0459,23915
3.06763,23204
3.08936,22797
3.1111,22315
3.13283,21907
3.15456,21669
3.1763,20830
3.19803,20538
3.21976,20103
3.24149,19788
3.26323,19312
3.28496,18718
3.30669,18828
3.32843,18215
3.35016,17804
3.37189,17592
3.39363,17276
3.41536,17025
3.43709,16734
3.45882,16228
3.48056,16110
3.50229,15904
3.52402,15546
3.54576,15395
3.56749,15104
3.58922,14867
3.61095,14227
3.63269,14206
3.65442,14206
3.67615,13785
3.69789,13651
3.71962,13608
3.74135,13307
3.76308,13177
3.78482,12908
3.80655,12784
3.82828,12434
3.85002,12308
3.87175,12000
3.89348,11986
3.91521,11807
3.93695,11621
3.95868,11595
3.98041,11047
4.00215,11024
4.02388,11007
4.04561,10825
4.06734,10789
4.08908,10630
4.11081,10666
4.13254,10460
4.15428,10225
4.17601,10236
4.19774,10039
4.21947,9751
4.24121,9658
4.26294,9492
4.28467,9580
4.30641,9453
4.32814,9140
4.34987,9434
4.3716,9241
4.39334,9053
4.41507,9170
4.4368,8812
4.45854,8802
4.48027,8752
4.502,8552
4.52373,8468
4.54547,8717
4.5672,8266
4.58893,8334
4.61067,8101
4.6324,8311
4.65413,8179
4.67586,8026
4.6976,7965
4.71933,7977
4.74106,8029
4.7628,7955
4.78453,7848
4.80626,7888
4.828,7778
4.84973,7626
4.87146,7666
4.89319,7605
4.91493,7516
4.93666,7563
4.95839,7520
4.98013,7335
5.00186,7386
5.02359,7272
5.04532,7186
5.06706,7262
5.08879,7008
5.11052,7269
5.13226,7107
5.15399,7148
5.17572,7069
5.19745,7225
5.21919,7187
5.24092,7028
5.26265,6980
5.28439,6897
5.30612,6985
5.32785,6849
5.34958,7029
5.37132,6915
5.39305,7013
5.41478,6997
5.43652,6887
5.45825,6924
5.47998,6875
5.50171,6860
5.52345,6738
5.54518,6903
5.56691,6855
5.58865,6965
5.61038,6750
5.63211,6730
5.65384,6881
5.67558,6938
5.69731,6667
5.71904,6623
5.74078,6759
5.76251,6816
5.78424,6818
5.80597,6792
5.82771,6681
5.84944,6877
5.87117,6785
5.89291,6732
5.91464,6829
5.93637,6841
5.9581,6984
5.97984,6846
6.00157,6833
6.0233,6900
6.04504,6724
6.06677,6861
6.0885,6885
6.11024,6888
6.13197,6934
6.1537,6788
6.17543,6782
6.19717,6941
6.2189,6931
6.24063,6924
6.26237,6804
6.2841,6989
6.30583,6843
6.32756,6824
6.3493,7017
6.37103,7111
6.39276,6940
6.4145,6850
6.43623,7061
6.45796,6951
6.47969,6929
6.50143,6908
6.52316,7009
6.54489,6868
6.56663,6895
6.58836,6981
6.61009,7054
6.63182,6961
6.65356,7031
6.67529,6931
6.69702,7014
6.71876,7086
6.74049,7115
6.76222,7072
6.78395,6842
6.80569,7032
6.82742,7095
6.84915,7139
6.87089,7109
6.89262,7211
6.91435,7137
6.93608,7176
6.95782,7189
6.97955,7041
7.00128,7160
7.02302,7102
7.04475,7198
7.06648,7183
7.08821,7092
7.10995,7130
7.13168,7164
7.15341,7129
7.17515,7186
7.19688,7272
7.21861,7086
7.24034,7324
7.26208,7047
7.28381,7121
7.30554,7313
7.32728,7183
7.34901,7215
7.37074,7324
7.39247,7299
7.41421,7322
7.43594,7186
7.45767,7200
7.47941,7413
7.50114,7300
7.52287,7409
7.54461,7276
7.56634,7427
7.58807,7567
7.6098,7326
7.63154,7294
7.65327,7438
7.675,7424
7.69674,7290
7.71847,7272
7.7402,7224
7.76193,7376
7.78367,7414
7.8054,7344
7.82713,7430
7.84887,7403
7.8706,7519
7.89233,7581
7.91406,7358
7.9358,7610
7.95753,7575
7.97926,7534
8.001,7696
8.02273,7563
8.04446,7489
8.06619,7493
8.08793,7579
8.10966,7601
8.13139,7649
8.15313,7854
8.17486,7533
8.19659,7574
8.21832,7726
8.24006,7742
8.26179,7783
8.28352,7623
8.30526,7872
8.32699,7680
8.34872,7728
8.37045,7687
8.39219,7914
8.41392,7888
8.43565,7697
8.45739,7943
8.47912,8066
8.50085,7956
8.52258,7940
8.54432,7871
8.56605,7869
8.58778,7883
8.60952,7831
8.63125,7970
8.65298,7893
8.67471,8122
8.69645,7891
8.71818,8035
8.73991,8103
8.76165,8054
8.78338,7949
8.80511,8230
8.82685,8149
8.84858,8171
8.87031,8048
8.89204,8209
8.91378,8213
8.93551,8404
8.95724,8200
8.97898,8352
9.00071,8252
9.02244,8453
9.04417,8368
9.06591,8242
9.08764,8182
9.10937,8214
9.13111,8255
9.15284,8394
9.17457,8500
9.1963,8567
9.21804,8526
9.23977,8500
9.2615,8745
9.28324,8383
9.30497,8664
9.3267,8587
9.34843,8519
9.37017,8737
9.3919,8581
9.41363,8701
9.43537,8633
9.4571,8757
9.47883,8992
9.50056,9008
9.5223,8789
9.54403,8910
9.56576,9084
9.5875,9133
9.60923,9186
9.63096,9092
9.65269,9238
9.67443,9269
9.69616,9177
9.71789,9456
9.73963,9584
9.76136,9733
9.78309,9640
9.80482,9677
9.82656,9579
9.84829,9661
9.87002,9826
9.89176,9963
9.91349,9690
9.93522,9583
9.95695,9449
9.97869,9439
10.0004,9535
10.0222,9275
10.0439,9111
10.0656,9108
10.0874,8892
10.1091,8822
10.1308,8796
10.1526,8638
10.1743,8736
10.196,8635
10.2177,8698
10.2395,8508
10.2612,8381
10.2829,8563
10.3047,8346
10.3264,8505
10.3481,8323
10.3699,8342
10.3916,8256
10.4133,8102
10.4351,8157
10.4568,8288
10.4785,8177
10.5003,8078
10.522,8193
10.5437,8199
10.5655,8052
10.5872,8142
10.6089,8063
10.6307,8052
10.6524,7948
10.6741,8003
10.6959,7827
10.7176,7816
10.7393,7808
10.7611,7853
10.7828,7694
10.8045,7707
10.8263,7558
10.848,7721
10.8697,7633
10.8915,7634
10.9132,7539
10.9349,7451
10.9567,7462
10.9784,7570
11.0001,7445
11.0219,7428
11.0436,7404
11.0653,7287
11.0871,7328
11.1088,7155
11.1305,7504
11.1523,7219
11.174,7253
11.1957,7244
11.2175,7148
11.2392,7154
11.2609,7273
11.2827,7208
11.3044,7147
11.3261,6971
11.3479,6843
11.3696,6924
11.3913,6931
11.4131,7035
11.4348,6819
11.4565,7112
11.4783,6811
11.5,6952
11.5217,6784
11.5435,6804
11.5652,6884
11.5869,6653
11.6087,6720
11.6304,6833
11.6521,6746
11.6739,6825
11.6956,6666
11.7173,6650
11.7391,6710
11.7608,6724
11.7825,6830
11.8042,6741
11.826,6682
11.8477,6558
11.8694,6440
11.8912,6540
11.9129,6681
11.9346,6515
11.9564,6726
11.9781,6567
11.9998,6540
12.0216,6643
12.0433,6612
12.065,6669
12.0868,6652
12.1085,6436
12.1302,6587
12.152,6630
12.1737,6691
12.1954,6660
12.2172,6602
12.2389,6464
12.2606,6488
12.2824,6475
12.3041,6473
12.3258,6428
12.3476,6703
12.3693,6718
12.391,6641
12.4128,6622
12.4345,6588
12.4562,6724
12.478,6699
12.4997,6862
12.5214,6811
12.5432,6533
12.5649,6558
12.5866,6697
12.6084,6646
12.6301,6861
12.6518,6654
12.6736,6707
12.6953,6779
12.717,6859
12.7388,6672
12.7605,6951
12.7822,6780
12.804,6822
12.8257,6962
12.8474,6802
12.8692,7007
12.8909,7009
12.9126,7065
12.9344,6890
12.9561,7094
12.9778,7127
12.9996,7213
13.0213,7278
13.043,7209
13.0648,7251
13.0865,7316
13.1082,7625
13.13,7492
13.1517,7545
13.1734,7725
13.1952,7766
13.2169,7943
13.2386,7986
13.2604,7991
13.2821,8084
13.3038,8350
13.3256,8504
13.3473,8576
13.369,8587
13.3907,9002
13.4125,9191
13.4342,9235
13.4559,9537
13.4777,9539
13.4994,10012
13.5211,10275
13.5429,10446
13.5646,10984
13.5863,11422
13.6081,11666
13.6298,12123
13.6515,12225
13.6733,13253
13.695,13733
13.7167,14255
13.7385,14975
13.7602,15771
13.7819,16511
13.8037,17389
13.8254,17919
13.8471,18547
13.8689,19606
13.8906,20197
13.9123,21077
13.9341,21285
13.9558,21878
13.9775,21943
13.9993,21533
14.021,20825
14.0427,19689
14.0645,18300
14.0862,16752
14.1079,15352
14.1297,13753
14.1514,12658
14.1731,11334
14.1949,10488
14.2166,9923
14.2383,9062
14.2601,8698
14.2818,8178
14.3035,7748
14.3253,7331
14.347,6932
14.3687,6831
14.3905,6568
14.4122,6359
14.4339,6125
14.4557,5925
14.4774,5814
14.4991,5487
14.5209,5336
14.5426,5295
14.5643,5131
14.5861,5138
14.6078,5039
14.6295,4981
14.6513,4721
14.673,4687
14.6947,4696
14.7165,4524
14.7382,4506
14.7599,4365
14.7817,4248
14.8034,4499
14.8251,4247
14.8469,4197
14.8686,4113
14.8903,4067
14.9121,4182
14.9338,4071
14.9555,4055
14.9773,4014
14.999,3988
15.0207,3865
15.0424,3793
15.0642,3848
15.0859,3755
15.1076,3644
15.1294,3664
15.1511,3682
15.1728,3652
15.1946,3656
15.2163,3687
15.238,3600
15.2598,3591
15.2815,3545
15.3032,3489
15.325,3442
15.3467,3468
15.3684,3452
15.3902,3452
15.4119,3343
15.4336,3463
15.4554,3355
15.4771,3348
15.4988,3299
15.5206,3422
15.5423,3302
15.564,3294
15.5858,3220
15.6075,3255
15.6292,3204
15.651,3269
15.6727,3290
15.6944,3103
15.7162,3297
15.7379,3347
15.7596,3226
15.7814,3231
15.8031,3265
15.8248,3169
15.8466,3256
15.8683,3177
15.89,3129
15.9118,3095
15.9335,3228
15.9552,2988
15.977,3067
15.9987,3099
16.0204,3045
16.0422,3103
16.0639,3091
16.0856,2988
16.1074,3007
16.1291,3033
16.1508,3000
16.1726,2972
16.1943,3034
16.216,3028
16.2378,2991
16.2595,2930
16.2812,2955
16.303,2933
16.3247,2910
16.3464,2957
16.3682,2941
16.3899,2869
16.4116,2911
16.4334,2937
16.4551,3040
16.4768,2904
16.4986,2927
16.5203,3034
16.542,2857
16.5638,2907
16.5855,2807
16.6072,2811
16.6289,2880
16.6507,2743
16.6724,2797
16.6941,2811
16.7159,2840
16.7376,2815
16.7593,2874
16.7811,2769
16.8028,2774
16.8245,2733
16.8463,2853
16.868,2722
16.8897,2796
16.9115,2771
16.9332,2708
16.9549,2740
16.9767,2742
16.9984,2721
17.0201,2739
17.0419,2733
17.0636,2805
17.0853,2841
17.1071,2677
17.1288,2720
17.1505,2849
17.1723,2748
17.194,2766
17.2157,2754
17.2375,2742
17.2592,2760
17.2809,2679
17.3027,2725
17.3244,2805
17.3461,2732
17.3679,2748
17.3896,2742
17.4113,2773
17.4331,2764
17.4548,2660
17.4765,2735
17.4983,2736
17.52,2614
17.5417,2664
17.5635,2717
17.5852,2739
17.6069,2691
17.6287,2709
17.6504,2751
17.6721,2695
17.6939,2591
17.7156,2709
17.7373,2635
17.7591,2623
17.7808,2653
17.8025,2744
17.8243,2677
17.846,2670
17.8677,2730
17.8895,2555
17.9112,2643
17.9329,2695
17.9547,2545
17.9764,2785
17.9981,2701
18.0199,2653
18.0416,2599
18.0633,2697
18.0851,2577
18.1068,2635
18.1285,2760
18.1503,2624
18.172,2548
18.1937,2606
18.2154,2514
18.2372,2532
18.2589,2626
18.2806,2539
18.3024,2599
18.3241,2650
18.3458,2659
18.3676,2611
18.3893,2650
18.411,2588
18.4328,2569
18.4545,2581
18.4762,2647
18.498,2517
18.5197,2568
18.5414,2698
18.5632,2625
18.5849,2598
18.6066,2592
18.6284,2558
18.6501,2585
18.6718,2720
18.6936,2649
18.7153,2655
18.737,2548
18.7588,2568
18.7805,2663
18.8022,2597
18.824,2535
18.8457,2581
18.8674,2615
18.8892,2629
18.9109,2554
18.9326,2654
18.9544,2593
18.9761,2571
18.9978,2534
19.0196,2545
19.0413,2540
19.063,2614
19.0848,2541
19.1065,2493
19.1282,2552
19.15,2606
19.1717,2604
19.1934,2595
19.2152,2616
19.2369,2574
19.2586,2620
19.2804,2637
19.3021,2604
19.3238,2499
19.3456,2500
19.3673,2627
19.389,2657
19.4108,2579
19.4325,2559
19.4542,2612
19.476,2618
19.4977,2626
19.5194,2521
19.5412,2617
19.5629,2554
19.5846,2624
19.6064,2721
19.6281,2617
19.6498,2604
19.6716,2583
19.6933,2618
19.715,2708
19.7368,2690
19.7585,2575
19.7802,2707
19.8019,2568
19.8237,2657
19.8454,2632
19.8671,2693
19.8889,2670
19.9106,2694
19.9323,2762
19.9541,2711
19.9758,2734
19.9975,2713
20.0193,2717
20.041,2745
20.0627,2823
20.0845,2777
20.1062,2857
20.1279,2918
20.1497,2812
20.1714,2933
20.1931,2960
20.2149,2948
20.2366,3105
20.2583,2959
20.2801,3058
20.3018,3063
20.3235,2936
20.3453,3003
20.367,2925
20.3887,2810
20.4105,2771
20.4322,2714
20.4539,2764
20.4757,2575
20.4974,2719
20.5191,2672
20.5409,2658
20.5626,2701
20.5843,2717
20.6061,2645
20.6278,2628
20.6495,2654
20.6713,2696
20.693,2695
20.7147,2704
20.7365,2614
20.7582,2703
20.7799,2536
20.8017,2645
20.8234,2512
20.8451,2540
20.8669,2607
20.8886,2653
20.9103,2561
20.9321,2536
20.9538,2553
20.9755,2600
20.9973,2535
21.019,2505
21.0407,2587
21.0625,2567
21.0842,2555
21.1059,2527
21.1277,2459
21.1494,2527
21.1711,2464
21.1929,2440
21.2146,2509
21.2363,2545
21.2581,2554
21.2798,2584
21.3015,2548
21.3233,2516
21.345,2540
21.3667,2480
21.3884,2493
21.4102,2526
21.4319,2573
21.4536,2468
21.4754,2438
21.4971,2544
21.5188,2558
21.5406,2587
21.5623,2534
21.584,2456
21.6058,2513
21.6275,2481
21.6492,2676
21.671,2548
21.6927,2535
21.7144,2504
21.7362,2515
21.7579,2520
21.7796,2463
21.8014,2485
21.8231,2456
21.8448,2426
21.8666,2435
21.8883,2421
21.91,2531
21.9318,2541
21.9535,2481
21.9752,2495
21.997,2429
22.0187,2572
22.0404,2502
22.0622,2499
22.0839,2574
22.1056,2628
22.1274,2519
22.1491,2595
22.1708,2612
22.1926,2598
22.2143,2620
22.236,2719
22.2578,2641
22.2795,2692
22.3012,2760
22.323,2732
22.3447,2758
22.3664,2760
22.3882,2776
22.4099,2809
22.4316,2756
22.4534,3037
22.4751,3053
22.4968,2903
22.5186,3060
22.5403,3080
22.562,3173
22.5838,3201
22.6055,3189
22.6272,3170
22.649,3279
22.6707,3335
22.6924,3225
22.7142,3340
22.7359,3357
22.7576,3273
22.7794,3452
22.8011,3308
22.8228,3381
22.8446,3357
22.8663,3384
22.888,3205
22.9098,3305
22.9315,3291
22.9532,3192
22.9749,3155
22.9967,3149
23.0184,3181
23.0401,3260
23.0619,3183
23.0836,3171
23.1053,3164
23.1271,3097
23.1488,3142
23.1705,3084
23.1923,3133
23.214,3068
23.2357,2999
23.2575,3166
23.2792,3116
23.3009,3039
23.3227,3083
23.3444,3073
23.3661,3012
23.3879,3117
23.4096,3062
23.4313,3115
23.4531,3111
23.4748,3090
23.4965,3005
23.5183,3086
23.54,2993
23.5617,2982
23.5835,3111
23.6052,3124
23.6269,3026
23.6487,3013
23.6704,3076
23.6921,3051
23.7139,3010
23.7356,3201
23.7573,3130
23.7791,3157
23.8008,3316
23.8225,3420
23.8443,3302
23.866,3326
23.8877,3361
23.9095,3569
23.9312,3451
23.9529,3234
23.9747,3231
23.9964,3058
24.0181,2955
24.0399,3093
24.0616,3066
24.0833,3049
24.1051,2960
24.1268,3082
24.1485,2950
24.1703,2954
24.192,2986
24.2137,2943
24.2355,2959
24.2572,2976
24.2789,2935
24.3007,2879
24.3224,2861
24.3441,2868
24.3659,2803
24.3876,2907
24.4093,2850
24.4311,2911
24.4528,2947
24.4745,2895
24.4963,2917
24.518,2762
24.5397,2887
24.5615,2861
24.5832,2732
24.6049,3045
24.6266,2867
24.6484,2945
24.6701,2754
24.6918,2914
24.7136,2897
24.7353,2818
24.757,2920
24.7788,2866
24.8005,2862
24.8222,2880
24.844,2824
24.8657,2963
24.8874,2896
24.9092,2913
24.9309,2984
24.9526,3015
24.9744,3027
24.9961,2975
25.0178,3017
25.0396,3069
25.0613,2976
25.083,2909
25.1048,3067
25.1265,3078
25.1482,3180
25.17,2997
25.1917,2954
25.2134,3001
25.2352,2981
25.2569,3131
25.2786,2982
25.3004,3016
25.3221,3045
25.3438,2955
25.3656,2955
25.3873,3030
25.409,2800
25.4308,2760
25.4525,2807
25.4742,2926
25.496,2910
25.5177,2885
25.5394,2777
25.5612,2804
25.5829,2939
25.6046,2833
25.6264,2961
25.6481,2950
25.6698,2760
25.6916,2869
25.7133,2935
25.735,2820
25.7568,2932
25.7785,2847
25.8002,2949
25.822,2872
25.8437,2785
25.8654,2898
25.8872,2857
25.9089,2887
25.9306,2891
25.9524,2844
25.9741,2852
25.9958,2880
26.0176,2915
26.0393,2804
26.061,2817
26.0828,2793
26.1045,2924
26.1262,2859
26.148,2755
26.1697,2846
26.1914,2844
26.2131,2990
26.2349,2945
26.2566,2836
26.2783,2843
26.3001,2829
26.3218,2900
26.3435,2983
26.3653,2897
26.387,2937
26.4087,2915
26.4305,3016
26.4522,3025
26.4739,2973
26.4957,2962
26.5174,2952
26.5391,2946
26.5609,2884
26.5826,2975
26.6043,2975
26.6261,2954
26.6478,2925
26.6695,3004
26.6913,3060
26.713,2959
26.7347,2946
26.7565,3012
26.7782,2998
26.7999,2948
26.8217,3054
26.8434,2914
26.8651,2961
26.8869,3023
26.9086,2967
26.9303,2975
26.9521,3002
26.9738,3042
26.9955,3184
27.0173,3120
27.039,3209
27.0607,3213
27.0825,3223
27.1042,3199
27.1259,3151
27.1477,3191
27.1694,3125
27.1911,3098
27.2129,3178
27.2346,3256
27.2563,3235
27.2781,3255
27.2998,3325
27.3215,3207
27.3433,3287
27.365,3305
27.3867,3293
27.4085,3296
27.4302,3446
27.4519,3425
27.4737,3341
27.4954,3452
27.5171,3465
27.5389,3490
27.5606,3496
27.5823,3593
27.6041,3570
27.6258,3500
27.6475,3724
27.6693,3635
27.691,3730
27.7127,3697
27.7345,3793
27.7562,3902
27.7779,3856
27.7996,3856
27.8214,4060
27.8431,4108
27.8648,4146
27.8866,4203
27.9083,4185
27.93,4301
27.9518,4387
27.9735,4395
27.9952,4523
28.017,4622
28.0387,4719
28.0604,4774
28.0822,4855
28.1039,5081
28.1256,5345
28.1474,5245
28.1691,5523
28.1908,5677
28.2126,5851
28.2343,6224
28.256,6232
28.2778,6599
28.2995,7044
28.3212,7378
28.343,7592
28.3647,8081
28.3864,8475
28.4082,9143
28.4299,9624
28.4516,10593
28.4734,11330
28.4951,12082
28.5168,12905
28.5386,14009
28.5603,14885
28.582,15702
28.6038,16360
28.6255,16404
28.6472,16475
28.669,15917
28.6907,15412
28.7124,14206
28.7342,13468
28.7559,12581
28.7776,11746
28.7994,11309
28.8211,10434
28.8428,10127
28.8646,9447
28.8863,9067
28.908,8687
28.9298,8407
28.9515,8359
28.9732,7992
28.995,7853
29.0167,7652
29.0384,7552
29.0602,7508
29.0819,7288
29.1036,7364
29.1254,7043
29.1471,7097
29.1688,6827
29.1906,6754
29.2123,6578
29.234,6508
29.2558,6475
29.2775,6273
29.2992,6289
29.321,6192
29.3427,5844
29.3644,5993
29.3861,5840
29.4079,5770
29.4296,5610
29.4513,5624
29.4731,5575
29.4948,5704
29.5165,5444
29.5383,5425
29.56,5497
29.5817,5321
29.6035,5366
29.6252,5296
29.6469,5106
29.6687,5175
29.6904,5212
29.7121,5137
29.7339,5040
29.7556,5237
29.7773,5064
29.7991,5127
29.8208,5008
29.8425,5096
29.8643,5110
29.886,5013
29.9077,5045
29.9295,5053
29.9512,4971
29.9729,4891
29.9947,4853