File: clay-plate-XRD-S2-2022/ENVT4461 S-16 Mg +moist.csv
"Angle","Counts"
3.00243,28205
3.02417,27584
3.0459,27135
3.06763,26702
3.08936,26206
3.1111,25538
3.13283,25494
3.15456,24934
3.1763,24693
3.19803,24119
3.21976,23607
3.24149,23133
3.26323,22879
3.28496,22359
3.30669,22104
3.32843,21987
3.35016,21389
3.37189,20839
3.39363,20680
3.41536,20422
3.43709,19955
3.45882,19795
3.48056,19706
3.50229,18863
3.52402,18571
3.54576,18892
3.56749,18718
3.58922,17815
3.61095,17883
3.63269,17407
3.65442,17369
3.67615,17151
3.69789,16978
3.71962,16760
3.74135,16554
3.76308,16428
3.78482,16092
3.80655,16103
3.82828,15742
3.85002,15430
3.87175,15232
3.89348,15244
3.91521,14841
3.93695,14848
3.95868,14602
3.98041,14213
4.00215,14191
4.02388,14367
4.04561,13866
4.06734,13803
4.08908,13414
4.11081,13304
4.13254,13226
4.15428,13502
4.17601,12907
4.19774,12846
4.21947,12709
4.24121,12829
4.26294,12530
4.28467,12400
4.30641,12163
4.32814,11999
4.34987,12242
4.3716,11985
4.39334,11750
4.41507,11813
4.4368,11619
4.45854,11622
4.48027,11352
4.502,11425
4.52373,11413
4.54547,11219
4.5672,11201
4.58893,11080
4.61067,10799
4.6324,10724
4.65413,10829
4.67586,10634
4.6976,10664
4.71933,10471
4.74106,10612
4.7628,10360
4.78453,10557
4.80626,10239
4.828,10098
4.84973,10115
4.87146,10153
4.89319,9872
4.91493,9826
4.93666,9850
4.95839,9887
4.98013,9806
5.00186,9700
5.02359,9586
5.04532,9622
5.06706,9562
5.08879,9353
5.11052,9389
5.13226,9253
5.15399,9360
5.17572,9026
5.19745,9185
5.21919,9304
5.24092,9182
5.26265,9028
5.28439,8954
5.30612,8994
5.32785,8934
5.34958,9027
5.37132,8839
5.39305,8875
5.41478,8705
5.43652,8617
5.45825,8497
5.47998,8532
5.50171,8469
5.52345,8688
5.54518,8581
5.56691,8333
5.58865,8510
5.61038,8205
5.63211,8245
5.65384,8404
5.67558,8507
5.69731,8342
5.71904,8323
5.74078,8210
5.76251,8231
5.78424,8079
5.80597,8145
5.82771,8247
5.84944,8113
5.87117,8157
5.89291,7911
5.91464,8059
5.93637,8031
5.9581,8018
5.97984,7827
6.00157,7872
6.0233,7901
6.04504,7877
6.06677,7996
6.0885,7844
6.11024,7868
6.13197,7915
6.1537,7706
6.17543,7871
6.19717,7892
6.2189,7813
6.24063,7755
6.26237,7824
6.2841,7713
6.30583,7915
6.32756,7789
6.3493,7577
6.37103,7692
6.39276,7701
6.4145,7655
6.43623,7708
6.45796,7717
6.47969,7524
6.50143,7538
6.52316,7497
6.54489,7528
6.56663,7417
6.58836,7577
6.61009,7449
6.63182,7457
6.65356,7285
6.67529,7348
6.69702,7332
6.71876,7421
6.74049,7492
6.76222,7215
6.78395,7212
6.80569,7270
6.82742,7281
6.84915,7391
6.87089,7314
6.89262,7162
6.91435,7266
6.93608,7331
6.95782,7220
6.97955,7120
7.00128,7119
7.02302,7086
7.04475,7115
7.06648,7208
7.08821,7266
7.10995,7076
7.13168,7118
7.15341,7095
7.17515,7145
7.19688,7014
7.21861,7071
7.24034,7134
7.26208,6911
7.28381,6822
7.30554,6985
7.32728,6987
7.34901,7071
7.37074,6948
7.39247,7215
7.41421,6924
7.43594,7002
7.45767,7104
7.47941,6911
7.50114,6970
7.52287,6984
7.54461,6914
7.56634,6866
7.58807,6894
7.6098,7015
7.63154,6705
7.65327,7013
7.675,6943
7.69674,6856
7.71847,6782
7.7402,6807
7.76193,6722
7.78367,6670
7.8054,6690
7.82713,6918
7.84887,6704
7.8706,6736
7.89233,6712
7.91406,6704
7.9358,7009
7.95753,6692
7.97926,6878
8.001,6750
8.02273,6851
8.04446,6840
8.06619,6845
8.08793,6873
8.10966,6861
8.13139,6858
8.15313,6876
8.17486,6674
8.19659,6889
8.21832,6791
8.24006,6636
8.26179,6786
8.28352,6686
8.30526,6617
8.32699,6763
8.34872,6777
8.37045,6784
8.39219,6697
8.41392,6728
8.43565,6643
8.45739,6811
8.47912,6903
8.50085,6634
8.52258,6872
8.54432,6803
8.56605,6764
8.58778,6739
8.60952,6922
8.63125,6793
8.65298,6765
8.67471,6888
8.69645,6887
8.71818,6705
8.73991,6938
8.76165,6832
8.78338,6773
8.80511,6802
8.82685,6849
8.84858,6814
8.87031,6852
8.89204,6823
8.91378,6861
8.93551,6834
8.95724,6995
8.97898,7051
9.00071,6982
9.02244,6969
9.04417,6861
9.06591,6898
9.08764,6997
9.10937,7035
9.13111,6995
9.15284,7127
9.17457,6882
9.1963,6975
9.21804,7000
9.23977,7012
9.2615,7009
9.28324,7069
9.30497,7109
9.3267,7109
9.34843,7183
9.37017,7128
9.3919,7319
9.41363,7116
9.43537,7213
9.4571,7364
9.47883,7242
9.50056,7477
9.5223,7171
9.54403,7367
9.56576,7378
9.5875,7375
9.60923,7277
9.63096,7273
9.65269,7448
9.67443,7387
9.69616,7377
9.71789,7329
9.73963,7543
9.76136,7756
9.78309,7469
9.80482,7585
9.82656,7562
9.84829,7579
9.87002,7648
9.89176,7714
9.91349,7693
9.93522,7641
9.95695,7597
9.97869,7476
10.0004,7523
10.0222,7509
10.0439,7460
10.0656,7428
10.0874,7617
10.1091,7272
10.1308,7490
10.1526,7294
10.1743,7330
10.196,7115
10.2177,7165
10.2395,7072
10.2612,6914
10.2829,6978
10.3047,6940
10.3264,6728
10.3481,6909
10.3699,6908
10.3916,6897
10.4133,6740
10.4351,6721
10.4568,6757
10.4785,6675
10.5003,6639
10.522,6739
10.5437,6796
10.5655,6497
10.5872,6418
10.6089,6617
10.6307,6631
10.6524,6478
10.6741,6529
10.6959,6542
10.7176,6266
10.7393,6484
10.7611,6184
10.7828,6411
10.8045,6269
10.8263,6216
10.848,6067
10.8697,6241
10.8915,6190
10.9132,6210
10.9349,6213
10.9567,6073
10.9784,6120
11.0001,5977
11.0219,6016
11.0436,6019
11.0653,6107
11.0871,6085
11.1088,5910
11.1305,5936
11.1523,5900
11.174,5805
11.1957,5823
11.2175,5767
11.2392,5648
11.2609,5690
11.2827,5959
11.3044,5767
11.3261,5858
11.3479,5788
11.3696,5836
11.3913,5697
11.4131,5839
11.4348,5720
11.4565,5671
11.4783,5773
11.5,5688
11.5217,5645
11.5435,5640
11.5652,5555
11.5869,5624
11.6087,5555
11.6304,5393
11.6521,5621
11.6739,5454
11.6956,5421
11.7173,5529
11.7391,5490
11.7608,5487
11.7825,5385
11.8042,5334
11.826,5438
11.8477,5512
11.8694,5591
11.8912,5383
11.9129,5406
11.9346,5599
11.9564,5381
11.9781,5519
11.9998,5525
12.0216,5391
12.0433,5495
12.065,5498
12.0868,5378
12.1085,5597
12.1302,5402
12.152,5433
12.1737,5633
12.1954,5526
12.2172,5485
12.2389,5409
12.2606,5529
12.2824,5456
12.3041,5695
12.3258,5667
12.3476,5625
12.3693,5625
12.391,5428
12.4128,5557
12.4345,5575
12.4562,5587
12.478,5544
12.4997,5680
12.5214,5633
12.5432,5710
12.5649,5585
12.5866,5545
12.6084,5698
12.6301,5746
12.6518,5747
12.6736,5714
12.6953,5724
12.717,5824
12.7388,5795
12.7605,5812
12.7822,5808
12.804,5848
12.8257,5876
12.8474,5949
12.8692,5943
12.8909,5947
12.9126,5990
12.9344,6114
12.9561,5991
12.9778,6123
12.9996,6128
13.0213,6291
13.043,6320
13.0648,6331
13.0865,6531
13.1082,6475
13.13,6415
13.1517,6631
13.1734,6774
13.1952,6684
13.2169,6885
13.2386,6901
13.2604,6935
13.2821,6942
13.3038,7129
13.3256,7130
13.3473,7296
13.369,7536
13.3907,7820
13.4125,8041
13.4342,7953
13.4559,8299
13.4777,8355
13.4994,8667
13.5211,8657
13.5429,8797
13.5646,9006
13.5863,9409
13.6081,9816
13.6298,10290
13.6515,10375
13.6733,10700
13.695,11244
13.7167,11498
13.7385,12012
13.7602,12478
13.7819,13095
13.8037,13603
13.8254,14134
13.8471,14608
13.8689,15130
13.8906,15547
13.9123,16389
13.9341,16547
13.9558,17184
13.9775,17301
13.9993,17383
14.021,17482
14.0427,17309
14.0645,16948
14.0862,17020
14.1079,16067
14.1297,15582
14.1514,15364
14.1731,14522
14.1949,13677
14.2166,12798
14.2383,12077
14.2601,11003
14.2818,10201
14.3035,9606
14.3253,9134
14.347,8650
14.3687,8203
14.3905,7731
14.4122,7312
14.4339,6907
14.4557,6509
14.4774,6340
14.4991,5934
14.5209,5855
14.5426,5747
14.5643,5512
14.5861,5334
14.6078,5242
14.6295,5134
14.6513,4945
14.673,4815
14.6947,4771
14.7165,4748
14.7382,4555
14.7599,4289
14.7817,4370
14.8034,4301
14.8251,4240
14.8469,4146
14.8686,4145
14.8903,4093
14.9121,4068
14.9338,3995
14.9555,3943
14.9773,3817
14.999,3837
15.0207,3861
15.0424,3822
15.0642,3737
15.0859,3704
15.1076,3599
15.1294,3615
15.1511,3598
15.1728,3597
15.1946,3564
15.2163,3511
15.238,3366
15.2598,3397
15.2815,3459
15.3032,3403
15.325,3326
15.3467,3334
15.3684,3377
15.3902,3318
15.4119,3296
15.4336,3379
15.4554,3272
15.4771,3218
15.4988,3142
15.5206,3125
15.5423,3176
15.564,3210
15.5858,3077
15.6075,3128
15.6292,3109
15.651,3133
15.6727,3119
15.6944,3212
15.7162,3089
15.7379,3113
15.7596,3061
15.7814,3031
15.8031,3094
15.8248,3019
15.8466,2973
15.8683,2996
15.89,2986
15.9118,3075
15.9335,3006
15.9552,3083
15.977,2985
15.9987,3047
16.0204,2966
16.0422,2919
16.0639,2921
16.0856,2937
16.1074,2884
16.1291,2960
16.1508,2940
16.1726,2978
16.1943,2913
16.216,2962
16.2378,2801
16.2595,2921
16.2812,2804
16.303,2810
16.3247,2907
16.3464,2929
16.3682,2846
16.3899,2887
16.4116,2783
16.4334,2809
16.4551,2732
16.4768,2722
16.4986,2748
16.5203,2820
16.542,2824
16.5638,2757
16.5855,2739
16.6072,2725
16.6289,2722
16.6507,2757
16.6724,2819
16.6941,2739
16.7159,2723
16.7376,2696
16.7593,2584
16.7811,2732
16.8028,2648
16.8245,2726
16.8463,2698
16.868,2663
16.8897,2612
16.9115,2552
16.9332,2577
16.9549,2717
16.9767,2680
16.9984,2708
17.0201,2734
17.0419,2598
17.0636,2616
17.0853,2643
17.1071,2598
17.1288,2465
17.1505,2627
17.1723,2686
17.194,2616
17.2157,2660
17.2375,2660
17.2592,2559
17.2809,2527
17.3027,2690
17.3244,2561
17.3461,2536
17.3679,2648
17.3896,2594
17.4113,2527
17.4331,2604
17.4548,2495
17.4765,2616
17.4983,2557
17.52,2455
17.5417,2521
17.5635,2600
17.5852,2531
17.6069,2549
17.6287,2551
17.6504,2538
17.6721,2576
17.6939,2475
17.7156,2631
17.7373,2487
17.7591,2566
17.7808,2585
17.8025,2514
17.8243,2482
17.846,2451
17.8677,2509
17.8895,2566
17.9112,2517
17.9329,2512
17.9547,2581
17.9764,2462
17.9981,2476
18.0199,2477
18.0416,2638
18.0633,2443
18.0851,2491
18.1068,2461
18.1285,2499
18.1503,2483
18.172,2458
18.1937,2405
18.2154,2504
18.2372,2582
18.2589,2535
18.2806,2436
18.3024,2497
18.3241,2541
18.3458,2385
18.3676,2520
18.3893,2394
18.411,2485
18.4328,2406
18.4545,2434
18.4762,2367
18.498,2519
18.5197,2572
18.5414,2400
18.5632,2398
18.5849,2514
18.6066,2414
18.6284,2393
18.6501,2507
18.6718,2544
18.6936,2451
18.7153,2393
18.737,2421
18.7588,2401
18.7805,2514
18.8022,2422
18.824,2457
18.8457,2424
18.8674,2443
18.8892,2489
18.9109,2404
18.9326,2478
18.9544,2455
18.9761,2399
18.9978,2351
19.0196,2442
19.0413,2389
19.063,2544
19.0848,2437
19.1065,2432
19.1282,2437
19.15,2456
19.1717,2387
19.1934,2487
19.2152,2362
19.2369,2388
19.2586,2340
19.2804,2473
19.3021,2475
19.3238,2485
19.3456,2427
19.3673,2420
19.389,2406
19.4108,2524
19.4325,2441
19.4542,2355
19.476,2365
19.4977,2447
19.5194,2433
19.5412,2423
19.5629,2440
19.5846,2445
19.6064,2438
19.6281,2375
19.6498,2441
19.6716,2437
19.6933,2468
19.715,2420
19.7368,2410
19.7585,2514
19.7802,2381
19.8019,2372
19.8237,2416
19.8454,2313
19.8671,2439
19.8889,2417
19.9106,2465
19.9323,2419
19.9541,2467
19.9758,2417
19.9975,2404
20.0193,2493
20.041,2523
20.0627,2507
20.0845,2423
20.1062,2429
20.1279,2596
20.1497,2514
20.1714,2591
20.1931,2478
20.2149,2628
20.2366,2541
20.2583,2572
20.2801,2467
20.3018,2600
20.3235,2499
20.3453,2466
20.367,2590
20.3887,2560
20.4105,2519
20.4322,2464
20.4539,2491
20.4757,2507
20.4974,2483
20.5191,2515
20.5409,2464
20.5626,2464
20.5843,2467
20.6061,2462
20.6278,2409
20.6495,2454
20.6713,2419
20.693,2395
20.7147,2466
20.7365,2393
20.7582,2393
20.7799,2389
20.8017,2491
20.8234,2437
20.8451,2521
20.8669,2409
20.8886,2440
20.9103,2448
20.9321,2407
20.9538,2394
20.9755,2459
20.9973,2371
21.019,2463
21.0407,2492
21.0625,2403
21.0842,2364
21.1059,2381
21.1277,2383
21.1494,2364
21.1711,2335
21.1929,2417
21.2146,2312
21.2363,2357
21.2581,2373
21.2798,2313
21.3015,2338
21.3233,2365
21.345,2363
21.3667,2259
21.3884,2263
21.4102,2219
21.4319,2248
21.4536,2345
21.4754,2414
21.4971,2259
21.5188,2238
21.5406,2381
21.5623,2219
21.584,2292
21.6058,2302
21.6275,2284
21.6492,2438
21.671,2376
21.6927,2254
21.7144,2373
21.7362,2399
21.7579,2348
21.7796,2354
21.8014,2304
21.8231,2312
21.8448,2297
21.8666,2211
21.8883,2281
21.91,2286
21.9318,2334
21.9535,2290
21.9752,2320
21.997,2339
22.0187,2313
22.0404,2325
22.0622,2294
22.0839,2339
22.1056,2324
22.1274,2426
22.1491,2393
22.1708,2380
22.1926,2463
22.2143,2356
22.236,2323
22.2578,2422
22.2795,2462
22.3012,2478
22.323,2539
22.3447,2468
22.3664,2548
22.3882,2507
22.4099,2612
22.4316,2572
22.4534,2631
22.4751,2626
22.4968,2626
22.5186,2698
22.5403,2689
22.562,2811
22.5838,2855
22.6055,2825
22.6272,2906
22.649,2836
22.6707,2861
22.6924,3023
22.7142,2912
22.7359,2895
22.7576,3038
22.7794,2973
22.8011,3108
22.8228,3185
22.8446,3083
22.8663,3156
22.888,3140
22.9098,3098
22.9315,3002
22.9532,2998
22.9749,3054
22.9967,3130
23.0184,3084
23.0401,3073
23.0619,3134
23.0836,3013
23.1053,3000
23.1271,2950
23.1488,2841
23.1705,2999
23.1923,2844
23.214,2990
23.2357,2947
23.2575,2905
23.2792,2986
23.3009,2853
23.3227,2833
23.3444,2768
23.3661,2945
23.3879,2867
23.4096,2823
23.4313,2852
23.4531,2917
23.4748,2904
23.4965,2861
23.5183,2826
23.54,3018
23.5617,2876
23.5835,2858
23.6052,2924
23.6269,2957
23.6487,2801
23.6704,2906
23.6921,2897
23.7139,2751
23.7356,2950
23.7573,2914
23.7791,2856
23.8008,2799
23.8225,2889
23.8443,2919
23.866,2867
23.8877,2849
23.9095,2892
23.9312,2854
23.9529,2853
23.9747,2825
23.9964,2845
24.0181,2851
24.0399,2879
24.0616,2812
24.0833,2858
24.1051,2812
24.1268,2790
24.1485,2889
24.1703,2855
24.192,2747
24.2137,2680
24.2355,2819
24.2572,2761
24.2789,2886
24.3007,2733
24.3224,2770
24.3441,2809
24.3659,2802
24.3876,2838
24.4093,2792
24.4311,2815
24.4528,2842
24.4745,2787
24.4963,2831
24.518,2829
24.5397,2854
24.5615,2772
24.5832,2724
24.6049,2860
24.6266,2809
24.6484,2829
24.6701,2865
24.6918,2708
24.7136,2863
24.7353,2714
24.757,2768
24.7788,2841
24.8005,2878
24.8222,2669
24.844,2805
24.8657,2816
24.8874,2772
24.9092,2769
24.9309,2746
24.9526,2813
24.9744,2737
24.9961,2733
25.0178,2788
25.0396,2772
25.0613,2870
25.083,2785
25.1048,2834
25.1265,2762
25.1482,2741
25.17,2756
25.1917,2772
25.2134,2615
25.2352,2776
25.2569,2733
25.2786,2712
25.3004,2770
25.3221,2760
25.3438,2780
25.3656,2706
25.3873,2724
25.409,2730
25.4308,2616
25.4525,2749
25.4742,2730
25.496,2743
25.5177,2676
25.5394,2773
25.5612,2725
25.5829,2680
25.6046,2780
25.6264,2738
25.6481,2729
25.6698,2666
25.6916,2776
25.7133,2762
25.735,2754
25.7568,2805
25.7785,2797
25.8002,2663
25.822,2775
25.8437,2798
25.8654,2759
25.8872,2789
25.9089,2798
25.9306,2732
25.9524,2711
25.9741,2807
25.9958,2822
26.0176,2772
26.0393,2885
26.061,2676
26.0828,2847
26.1045,2754
26.1262,2744
26.148,2731
26.1697,2799
26.1914,2780
26.2131,2733
26.2349,2827
26.2566,2834
26.2783,2795
26.3001,2786
26.3218,2845
26.3435,2792
26.3653,2818
26.387,2795
26.4087,2860
26.4305,2878
26.4522,2906
26.4739,2858
26.4957,2862
26.5174,2769
26.5391,2786
26.5609,2816
26.5826,2806
26.6043,2882
26.6261,2982
26.6478,2878
26.6695,2909
26.6913,2869
26.713,2888
26.7347,2929
26.7565,2834
26.7782,3003
26.7999,2967
26.8217,2856
26.8434,2944
26.8651,2942
26.8869,2890
26.9086,2936
26.9303,2956
26.9521,2945
26.9738,2977
26.9955,3045
27.0173,2959
27.039,2995
27.0607,3021
27.0825,2981
27.1042,2987
27.1259,3089
27.1477,3081
27.1694,3147
27.1911,3111
27.2129,3057
27.2346,3021
27.2563,3181
27.2781,3124
27.2998,3145
27.3215,3227
27.3433,3237
27.365,3311
27.3867,3184
27.4085,3173
27.4302,3308
27.4519,3255
27.4737,3328
27.4954,3439
27.5171,3483
27.5389,3402
27.5606,3492
27.5823,3373
27.6041,3441
27.6258,3577
27.6475,3627
27.6693,3503
27.691,3576
27.7127,3707
27.7345,3694
27.7562,3642
27.7779,3754
27.7996,3793
27.8214,3843
27.8431,3976
27.8648,4046
27.8866,3942
27.9083,4100
27.93,4219
27.9518,4313
27.9735,4376
27.9952,4378
28.017,4541
28.0387,4559
28.0604,4678
28.0822,4769
28.1039,4794
28.1256,5188
28.1474,5096
28.1691,5278
28.1908,5432
28.2126,5579
28.2343,5854
28.256,5949
28.2778,6254
28.2995,6570
28.3212,6732
28.343,6932
28.3647,7352
28.3864,7724
28.4082,8199
28.4299,8293
28.4516,8962
28.4734,9429
28.4951,10018
28.5168,10612
28.5386,11190
28.5603,12014
28.582,12343
28.6038,13232
28.6255,13614
28.6472,14057
28.669,14408
28.6907,14730
28.7124,14722
28.7342,14498
28.7559,14528
28.7776,14287
28.7994,13502
28.8211,13406
28.8428,12785
28.8646,12078
28.8863,11631
28.908,10953
28.9298,10465
28.9515,9929
28.9732,9386
28.995,9331
29.0167,8876
29.0384,8542
29.0602,8235
29.0819,7961
29.1036,7674
29.1254,7544
29.1471,7373
29.1688,7130
29.1906,6979
29.2123,6921
29.234,6626
29.2558,6541
29.2775,6389
29.2992,6289
29.321,6239
29.3427,6178
29.3644,6086
29.3861,5880
29.4079,5876
29.4296,5714
29.4513,5660
29.4731,5668
29.4948,5610
29.5165,5436
29.5383,5447
29.56,5334
29.5817,5320
29.6035,5348
29.6252,5217
29.6469,5226
29.6687,5171
29.6904,5166
29.7121,5033
29.7339,5157
29.7556,5013
29.7773,5084
29.7991,5054
29.8208,4984
29.8425,4674
29.8643,4766
29.886,4933
29.9077,4782
29.9295,4905
29.9512,4864
29.9729,4704
29.9947,4780