File: clay-plate-XRD-S2-2022/ENVT4461 S-16 Heated-400.csv
"Angle","Counts"
3.00243,25316
3.02417,24777
3.0459,24410
3.06763,23761
3.08936,23025
3.1111,22783
3.13283,22106
3.15456,21684
3.1763,21201
3.19803,20708
3.21976,20454
3.24149,20012
3.26323,19869
3.28496,19293
3.30669,19042
3.32843,18652
3.35016,18253
3.37189,17998
3.39363,17579
3.41536,17488
3.43709,16890
3.45882,16757
3.48056,16420
3.50229,16231
3.52402,16159
3.54576,15718
3.56749,15527
3.58922,15161
3.61095,15222
3.63269,14781
3.65442,14802
3.67615,14594
3.69789,14259
3.71962,14133
3.74135,13916
3.76308,13827
3.78482,13748
3.80655,13421
3.82828,13387
3.85002,13280
3.87175,12978
3.89348,12817
3.91521,12603
3.93695,12515
3.95868,12605
3.98041,12385
4.00215,12102
4.02388,12320
4.04561,11940
4.06734,11890
4.08908,11629
4.11081,11992
4.13254,11569
4.15428,11467
4.17601,11117
4.19774,11491
4.21947,11198
4.24121,11083
4.26294,11029
4.28467,10917
4.30641,11027
4.32814,10859
4.34987,10832
4.3716,10534
4.39334,10704
4.41507,10579
4.4368,10657
4.45854,10534
4.48027,10424
4.502,10439
4.52373,10297
4.54547,10335
4.5672,10344
4.58893,10282
4.61067,10322
4.6324,10026
4.65413,10272
4.67586,10092
4.6976,10094
4.71933,9919
4.74106,9857
4.7628,9888
4.78453,9942
4.80626,9870
4.828,9865
4.84973,10009
4.87146,9797
4.89319,9766
4.91493,9841
4.93666,9764
4.95839,9750
4.98013,9755
5.00186,9735
5.02359,9606
5.04532,9623
5.06706,9768
5.08879,9796
5.11052,9663
5.13226,9695
5.15399,9890
5.17572,9836
5.19745,9934
5.21919,9968
5.24092,9849
5.26265,9810
5.28439,9812
5.30612,9714
5.32785,9801
5.34958,9769
5.37132,9791
5.39305,9924
5.41478,9788
5.43652,9896
5.45825,9664
5.47998,9849
5.50171,9838
5.52345,9741
5.54518,9723
5.56691,9674
5.58865,9982
5.61038,9977
5.63211,9791
5.65384,9966
5.67558,10145
5.69731,9982
5.71904,10115
5.74078,9933
5.76251,10090
5.78424,10079
5.80597,9975
5.82771,9993
5.84944,10057
5.87117,9978
5.89291,10188
5.91464,9994
5.93637,10294
5.9581,10189
5.97984,10274
6.00157,10207
6.0233,10329
6.04504,10126
6.06677,10282
6.0885,10521
6.11024,10197
6.13197,10370
6.1537,10509
6.17543,10108
6.19717,10460
6.2189,10338
6.24063,10291
6.26237,10407
6.2841,10378
6.30583,10480
6.32756,10497
6.3493,10502
6.37103,10382
6.39276,10627
6.4145,10435
6.43623,10562
6.45796,10774
6.47969,10538
6.50143,10574
6.52316,10640
6.54489,10772
6.56663,10692
6.58836,10706
6.61009,10784
6.63182,10830
6.65356,10790
6.67529,10790
6.69702,10882
6.71876,10885
6.74049,10603
6.76222,10773
6.78395,10929
6.80569,10920
6.82742,10823
6.84915,10945
6.87089,10864
6.89262,10861
6.91435,10772
6.93608,10733
6.95782,10895
6.97955,11056
7.00128,10819
7.02302,11029
7.04475,10880
7.06648,11112
7.08821,10816
7.10995,10956
7.13168,10992
7.15341,10960
7.17515,10997
7.19688,11171
7.21861,10998
7.24034,10935
7.26208,11028
7.28381,11037
7.30554,11151
7.32728,11097
7.34901,11175
7.37074,11025
7.39247,11027
7.41421,11130
7.43594,11167
7.45767,11097
7.47941,11045
7.50114,11249
7.52287,11128
7.54461,11389
7.56634,11111
7.58807,11257
7.6098,11418
7.63154,11268
7.65327,11289
7.675,11288
7.69674,11369
7.71847,11479
7.7402,11257
7.76193,11319
7.78367,11376
7.8054,11486
7.82713,11483
7.84887,11410
7.8706,11380
7.89233,11481
7.91406,11432
7.9358,11449
7.95753,11482
7.97926,11647
8.001,11379
8.02273,11644
8.04446,11597
8.06619,11532
8.08793,11654
8.10966,11706
8.13139,11500
8.15313,11560
8.17486,11685
8.19659,11616
8.21832,11707
8.24006,11675
8.26179,11681
8.28352,11678
8.30526,11623
8.32699,11657
8.34872,11772
8.37045,11900
8.39219,11869
8.41392,11919
8.43565,11828
8.45739,11796
8.47912,12109
8.50085,12136
8.52258,11635
8.54432,11988
8.56605,11916
8.58778,11923
8.60952,11908
8.63125,12160
8.65298,12069
8.67471,11962
8.69645,12103
8.71818,12056
8.73991,12251
8.76165,12334
8.78338,12110
8.80511,12136
8.82685,12040
8.84858,12210
8.87031,12245
8.89204,12333
8.91378,12218
8.93551,12389
8.95724,12521
8.97898,12179
9.00071,12363
9.02244,12191
9.04417,12385
9.06591,12673
9.08764,12495
9.10937,12466
9.13111,12480
9.15284,12576
9.17457,12618
9.1963,12624
9.21804,12764
9.23977,12580
9.2615,12603
9.28324,12709
9.30497,12885
9.3267,12822
9.34843,12831
9.37017,12880
9.3919,13035
9.41363,13073
9.43537,13109
9.4571,13142
9.47883,13124
9.50056,13093
9.5223,13547
9.54403,13531
9.56576,13525
9.5875,13752
9.60923,13810
9.63096,13719
9.65269,13924
9.67443,14278
9.69616,14253
9.71789,14264
9.73963,14315
9.76136,14530
9.78309,14649
9.80482,14812
9.82656,14857
9.84829,14764
9.87002,14850
9.89176,14665
9.91349,14718
9.93522,14440
9.95695,14318
9.97869,14211
10.0004,13795
10.0222,13747
10.0439,13269
10.0656,13229
10.0874,13036
10.1091,12961
10.1308,12831
10.1526,12751
10.1743,12527
10.196,12191
10.2177,12384
10.2395,12245
10.2612,12038
10.2829,12000
10.3047,12041
10.3264,11875
10.3481,11786
10.3699,11718
10.3916,11685
10.4133,11424
10.4351,11711
10.4568,11491
10.4785,11214
10.5003,11107
10.522,11162
10.5437,11160
10.5655,11084
10.5872,11041
10.6089,11025
10.6307,10960
10.6524,11016
10.6741,10893
10.6959,10833
10.7176,10841
10.7393,10540
10.7611,10563
10.7828,10612
10.8045,10247
10.8263,10313
10.848,10183
10.8697,10228
10.8915,10284
10.9132,9891
10.9349,10126
10.9567,10152
10.9784,9928
11.0001,9867
11.0219,9740
11.0436,9871
11.0653,9853
11.0871,9866
11.1088,9595
11.1305,9688
11.1523,9549
11.174,9491
11.1957,9501
11.2175,9462
11.2392,9357
11.2609,9285
11.2827,9355
11.3044,9261
11.3261,9125
11.3479,9252
11.3696,9247
11.3913,9214
11.4131,9182
11.4348,9204
11.4565,9118
11.4783,8929
11.5,9046
11.5217,9124
11.5435,9013
11.5652,8968
11.5869,8891
11.6087,8886
11.6304,8886
11.6521,8731
11.6739,8900
11.6956,8686
11.7173,8834
11.7391,8761
11.7608,8970
11.7825,8722
11.8042,8633
11.826,8985
11.8477,8845
11.8694,8547
11.8912,8612
11.9129,8777
11.9346,8681
11.9564,8594
11.9781,8610
11.9998,8617
12.0216,8653
12.0433,8576
12.065,8753
12.0868,8584
12.1085,8605
12.1302,8476
12.152,8630
12.1737,8606
12.1954,8656
12.2172,8790
12.2389,8787
12.2606,8863
12.2824,8874
12.3041,8702
12.3258,8671
12.3476,8717
12.3693,8680
12.391,8912
12.4128,8973
12.4345,8936
12.4562,8900
12.478,9046
12.4997,8956
12.5214,8964
12.5432,8943
12.5649,9002
12.5866,8995
12.6084,9319
12.6301,9311
12.6518,9446
12.6736,9209
12.6953,9408
12.717,9588
12.7388,9409
12.7605,9463
12.7822,9439
12.804,9477
12.8257,9693
12.8474,9710
12.8692,9730
12.8909,9761
12.9126,9914
12.9344,10193
12.9561,10315
12.9778,10201
12.9996,10283
13.0213,10380
13.043,10619
13.0648,10613
13.0865,10596
13.1082,10920
13.13,11031
13.1517,11343
13.1734,11399
13.1952,11424
13.2169,11879
13.2386,12324
13.2604,12045
13.2821,12308
13.3038,12973
13.3256,13343
13.3473,13752
13.369,13724
13.3907,14419
13.4125,14792
13.4342,15283
13.4559,15650
13.4777,16382
13.4994,17044
13.5211,17448
13.5429,18016
13.5646,18745
13.5863,20017
13.6081,21193
13.6298,22310
13.6515,23723
13.6733,24922
13.695,26440
13.7167,28044
13.7385,29461
13.7602,31584
13.7819,33423
13.8037,35144
13.8254,37305
13.8471,39140
13.8689,41527
13.8906,43211
13.9123,44801
13.9341,45708
13.9558,46477
13.9775,46114
13.9993,44765
14.021,42906
14.0427,39786
14.0645,36301
14.0862,32552
14.1079,29308
14.1297,25885
14.1514,23007
14.1731,20619
14.1949,19122
14.2166,17075
14.2383,15850
14.2601,14708
14.2818,13806
14.3035,13080
14.3253,11981
14.347,11449
14.3687,10604
14.3905,10410
14.4122,9804
14.4339,9527
14.4557,8908
14.4774,8516
14.4991,8178
14.5209,8029
14.5426,7771
14.5643,7566
14.5861,7180
14.6078,6968
14.6295,6865
14.6513,6687
14.673,6575
14.6947,6433
14.7165,6174
14.7382,6173
14.7599,5960
14.7817,5955
14.8034,5742
14.8251,5681
14.8469,5497
14.8686,5502
14.8903,5377
14.9121,5222
14.9338,5311
14.9555,5134
14.9773,5110
14.999,5095
15.0207,5023
15.0424,5039
15.0642,4810
15.0859,4728
15.1076,4770
15.1294,4654
15.1511,4570
15.1728,4505
15.1946,4442
15.2163,4409
15.238,4400
15.2598,4357
15.2815,4279
15.3032,4235
15.325,4288
15.3467,4292
15.3684,4265
15.3902,4251
15.4119,4207
15.4336,4126
15.4554,4040
15.4771,4056
15.4988,3932
15.5206,4028
15.5423,3967
15.564,3885
15.5858,3991
15.6075,3890
15.6292,3869
15.651,3792
15.6727,3773
15.6944,3819
15.7162,3692
15.7379,3610
15.7596,3760
15.7814,3664
15.8031,3626
15.8248,3651
15.8466,3631
15.8683,3636
15.89,3642
15.9118,3606
15.9335,3593
15.9552,3708
15.977,3531
15.9987,3602
16.0204,3481
16.0422,3535
16.0639,3591
16.0856,3516
16.1074,3511
16.1291,3448
16.1508,3367
16.1726,3482
16.1943,3492
16.216,3372
16.2378,3358
16.2595,3290
16.2812,3357
16.303,3312
16.3247,3388
16.3464,3278
16.3682,3407
16.3899,3278
16.4116,3298
16.4334,3344
16.4551,3296
16.4768,3392
16.4986,3209
16.5203,3167
16.542,3147
16.5638,3184
16.5855,3210
16.6072,3218
16.6289,3255
16.6507,3227
16.6724,3251
16.6941,3208
16.7159,3211
16.7376,3094
16.7593,3202
16.7811,3037
16.8028,3099
16.8245,3019
16.8463,3111
16.868,3059
16.8897,3167
16.9115,3142
16.9332,3023
16.9549,2988
16.9767,3205
16.9984,3124
17.0201,3135
17.0419,3128
17.0636,3128
17.0853,2971
17.1071,2943
17.1288,3144
17.1505,3053
17.1723,2914
17.194,2911
17.2157,3067
17.2375,3101
17.2592,2954
17.2809,2952
17.3027,2961
17.3244,2907
17.3461,3030
17.3679,2837
17.3896,2935
17.4113,2929
17.4331,2925
17.4548,2951
17.4765,3022
17.4983,2940
17.52,2862
17.5417,2943
17.5635,2912
17.5852,2948
17.6069,3026
17.6287,3026
17.6504,2959
17.6721,2807
17.6939,2891
17.7156,2926
17.7373,2875
17.7591,2930
17.7808,2923
17.8025,2906
17.8243,2904
17.846,2906
17.8677,2812
17.8895,2969
17.9112,2828
17.9329,2867
17.9547,2843
17.9764,2806
17.9981,2865
18.0199,2891
18.0416,2813
18.0633,2866
18.0851,2902
18.1068,2875
18.1285,2935
18.1503,2808
18.172,2792
18.1937,2833
18.2154,2791
18.2372,2773
18.2589,2797
18.2806,2871
18.3024,2808
18.3241,2823
18.3458,2828
18.3676,2791
18.3893,2865
18.411,2830
18.4328,2795
18.4545,2856
18.4762,2884
18.498,2825
18.5197,2876
18.5414,2791
18.5632,2815
18.5849,2855
18.6066,2736
18.6284,2802
18.6501,2846
18.6718,2857
18.6936,2833
18.7153,2824
18.737,2836
18.7588,2811
18.7805,2824
18.8022,2821
18.824,2709
18.8457,2829
18.8674,2867
18.8892,2787
18.9109,2867
18.9326,2830
18.9544,2762
18.9761,2753
18.9978,2842
19.0196,2819
19.0413,2819
19.063,2857
19.0848,2880
19.1065,2818
19.1282,2836
19.15,2821
19.1717,2959
19.1934,2846
19.2152,2880
19.2369,2911
19.2586,2836
19.2804,2947
19.3021,2858
19.3238,2921
19.3456,2825
19.3673,2859
19.389,2971
19.4108,2829
19.4325,2856
19.4542,2847
19.476,2938
19.4977,2835
19.5194,2830
19.5412,2824
19.5629,2861
19.5846,2867
19.6064,2876
19.6281,2996
19.6498,2881
19.6716,2958
19.6933,2948
19.715,2977
19.7368,2887
19.7585,2905
19.7802,2970
19.8019,2964
19.8237,2996
19.8454,2959
19.8671,2934
19.8889,2931
19.9106,2883
19.9323,2955
19.9541,2910
19.9758,2992
19.9975,3022
20.0193,3127
20.041,3234
20.0627,3231
20.0845,3177
20.1062,3277
20.1279,3264
20.1497,3239
20.1714,3472
20.1931,3412
20.2149,3329
20.2366,3378
20.2583,3420
20.2801,3391
20.3018,3309
20.3235,3368
20.3453,3409
20.367,3452
20.3887,3167
20.4105,3155
20.4322,3159
20.4539,3054
20.4757,3017
20.4974,2991
20.5191,3028
20.5409,2919
20.5626,2949
20.5843,2968
20.6061,3030
20.6278,2893
20.6495,2792
20.6713,2892
20.693,2852
20.7147,2879
20.7365,2833
20.7582,2849
20.7799,2890
20.8017,2830
20.8234,2781
20.8451,2780
20.8669,2835
20.8886,2857
20.9103,2669
20.9321,2722
20.9538,2815
20.9755,2760
20.9973,2619
21.019,2870
21.0407,2745
21.0625,2678
21.0842,2734
21.1059,2723
21.1277,2776
21.1494,2602
21.1711,2669
21.1929,2728
21.2146,2696
21.2363,2616
21.2581,2569
21.2798,2633
21.3015,2655
21.3233,2678
21.345,2743
21.3667,2661
21.3884,2641
21.4102,2615
21.4319,2570
21.4536,2514
21.4754,2696
21.4971,2537
21.5188,2635
21.5406,2581
21.5623,2621
21.584,2497
21.6058,2521
21.6275,2552
21.6492,2711
21.671,2611
21.6927,2626
21.7144,2613
21.7362,2529
21.7579,2573
21.7796,2556
21.8014,2462
21.8231,2591
21.8448,2558
21.8666,2529
21.8883,2447
21.91,2541
21.9318,2579
21.9535,2485
21.9752,2668
21.997,2495
22.0187,2544
22.0404,2494
22.0622,2457
22.0839,2584
22.1056,2539
22.1274,2586
22.1491,2547
22.1708,2566
22.1926,2591
22.2143,2661
22.236,2643
22.2578,2586
22.2795,2512
22.3012,2596
22.323,2658
22.3447,2604
22.3664,2615
22.3882,2759
22.4099,2716
22.4316,2635
22.4534,2701
22.4751,2730
22.4968,2737
22.5186,2799
22.5403,2894
22.562,2838
22.5838,2925
22.6055,2963
22.6272,2938
22.649,2876
22.6707,2920
22.6924,3073
22.7142,2919
22.7359,3064
22.7576,3007
22.7794,2898
22.8011,2942
22.8228,3016
22.8446,2977
22.8663,3002
22.888,2981
22.9098,2883
22.9315,3027
22.9532,2926
22.9749,2952
22.9967,2971
23.0184,2856
23.0401,2865
23.0619,2777
23.0836,2847
23.1053,2836
23.1271,2875
23.1488,2898
23.1705,2846
23.1923,2834
23.214,2733
23.2357,2854
23.2575,2879
23.2792,2847
23.3009,2842
23.3227,2728
23.3444,2754
23.3661,2887
23.3879,2989
23.4096,2800
23.4313,2716
23.4531,2764
23.4748,2788
23.4965,2781
23.5183,2757
23.54,2730
23.5617,2798
23.5835,2751
23.6052,2740
23.6269,2762
23.6487,2927
23.6704,2832
23.6921,2838
23.7139,2892
23.7356,2960
23.7573,2891
23.7791,3025
23.8008,2973
23.8225,3001
23.8443,3053
23.866,3007
23.8877,3087
23.9095,3033
23.9312,2809
23.9529,2817
23.9747,2819
23.9964,2829
24.0181,2752
24.0399,2829
24.0616,2664
24.0833,2694
24.1051,2798
24.1268,2817
24.1485,2782
24.1703,2744
24.192,2722
24.2137,2750
24.2355,2759
24.2572,2824
24.2789,2747
24.3007,2649
24.3224,2752
24.3441,2669
24.3659,2732
24.3876,2662
24.4093,2715
24.4311,2680
24.4528,2783
24.4745,2663
24.4963,2691
24.518,2748
24.5397,2656
24.5615,2649
24.5832,2682
24.6049,2626
24.6266,2646
24.6484,2760
24.6701,2708
24.6918,2692
24.7136,2679
24.7353,2662
24.757,2750
24.7788,2707
24.8005,2736
24.8222,2699
24.844,2745
24.8657,2618
24.8874,2711
24.9092,2765
24.9309,2680
24.9526,2737
24.9744,2753
24.9961,2752
25.0178,2773
25.0396,2671
25.0613,2729
25.083,2697
25.1048,2738
25.1265,2683
25.1482,2889
25.17,2854
25.1917,2893
25.2134,2810
25.2352,2831
25.2569,2891
25.2786,2826
25.3004,2772
25.3221,2814
25.3438,2851
25.3656,2804
25.3873,2822
25.409,2729
25.4308,2754
25.4525,2712
25.4742,2702
25.496,2680
25.5177,2712
25.5394,2736
25.5612,2796
25.5829,2736
25.6046,2793
25.6264,2773
25.6481,2772
25.6698,2829
25.6916,2829
25.7133,2879
25.735,2786
25.7568,2808
25.7785,2749
25.8002,2886
25.822,2854
25.8437,2918
25.8654,2875
25.8872,2839
25.9089,2963
25.9306,2856
25.9524,2809
25.9741,2885
25.9958,2860
26.0176,2806
26.0393,2902
26.061,2819
26.0828,2823
26.1045,2753
26.1262,2851
26.148,2791
26.1697,2811
26.1914,2847
26.2131,2852
26.2349,2823
26.2566,2893
26.2783,2888
26.3001,2867
26.3218,2818
26.3435,2882
26.3653,2982
26.387,2917
26.4087,2929
26.4305,2887
26.4522,2821
26.4739,2817
26.4957,2930
26.5174,2967
26.5391,2968
26.5609,2932
26.5826,2945
26.6043,2860
26.6261,3003
26.6478,2894
26.6695,2984
26.6913,2993
26.713,3062
26.7347,3061
26.7565,3035
26.7782,3070
26.7999,3172
26.8217,3079
26.8434,3242
26.8651,3135
26.8869,3237
26.9086,3112
26.9303,3229
26.9521,3251
26.9738,3279
26.9955,3311
27.0173,3349
27.039,3398
27.0607,3456
27.0825,3406
27.1042,3321
27.1259,3454
27.1477,3389
27.1694,3340
27.1911,3342
27.2129,3350
27.2346,3504
27.2563,3439
27.2781,3574
27.2998,3597
27.3215,3645
27.3433,3593
27.365,3637
27.3867,3723
27.4085,3663
27.4302,3745
27.4519,3838
27.4737,3842
27.4954,3826
27.5171,3944
27.5389,4049
27.5606,3994
27.5823,4122
27.6041,4180
27.6258,4278
27.6475,4024
27.6693,4416
27.691,4291
27.7127,4538
27.7345,4475
27.7562,4638
27.7779,4741
27.7996,4773
27.8214,4931
27.8431,5185
27.8648,4948
27.8866,5209
27.9083,5324
27.93,5377
27.9518,5575
27.9735,5892
27.9952,5956
28.017,6103
28.0387,6456
28.0604,6574
28.0822,6829
28.1039,7022
28.1256,7263
28.1474,7569
28.1691,8044
28.1908,8217
28.2126,8695
28.2343,9189
28.256,9638
28.2778,10230
28.2995,10906
28.3212,11606
28.343,12189
28.3647,13245
28.3864,14299
28.4082,15530
28.4299,17189
28.4516,18587
28.4734,20360
28.4951,22055
28.5168,24197
28.5386,26230
28.5603,28142
28.582,29735
28.6038,30776
28.6255,30755
28.6472,30041
28.669,29128
28.6907,27344
28.7124,25315
28.7342,23410
28.7559,21425
28.7776,19824
28.7994,18422
28.8211,17110
28.8428,15738
28.8646,14889
28.8863,13858
28.908,13647
28.9298,13031
28.9515,12333
28.9732,11629
28.995,11261
29.0167,10925
29.0384,10759
29.0602,10339
29.0819,10116
29.1036,9696
29.1254,9636
29.1471,9357
29.1688,9138
29.1906,8949
29.2123,8695
29.234,8533
29.2558,8085
29.2775,8135
29.2992,7838
29.321,7820
29.3427,7663
29.3644,7509
29.3861,7547
29.4079,7359
29.4296,7148
29.4513,7170
29.4731,7259
29.4948,7035
29.5165,7070
29.5383,6708
29.56,6672
29.5817,6758
29.6035,6631
29.6252,6605
29.6469,6464
29.6687,6394
29.6904,6502
29.7121,6551
29.7339,6380
29.7556,6333
29.7773,6325
29.7991,6299
29.8208,6308
29.8425,6249
29.8643,6179
29.886,6262
29.9077,6141
29.9295,6116
29.9512,6199
29.9729,6290
29.9947,6165