File: clay-plate-XRD-S2-2022/ENVT4461 S-13 Heated-550.csv
"Angle","Counts"
3.00243,24882
3.02417,24455
3.0459,23940
3.06763,23329
3.08936,22836
3.1111,22216
3.13283,21784
3.15456,21426
3.1763,21012
3.19803,20636
3.21976,20173
3.24149,19455
3.26323,19338
3.28496,18928
3.30669,18563
3.32843,18311
3.35016,17942
3.37189,17310
3.39363,17068
3.41536,16802
3.43709,16492
3.45882,16284
3.48056,15989
3.50229,15536
3.52402,15217
3.54576,15260
3.56749,14862
3.58922,14722
3.61095,14509
3.63269,14039
3.65442,14068
3.67615,13773
3.69789,13519
3.71962,13481
3.74135,12796
3.76308,12932
3.78482,12568
3.80655,12283
3.82828,12451
3.85002,11994
3.87175,11971
3.89348,11588
3.91521,11692
3.93695,11256
3.95868,11232
3.98041,10873
4.00215,10722
4.02388,10516
4.04561,10436
4.06734,10478
4.08908,10017
4.11081,10163
4.13254,9854
4.15428,9847
4.17601,9681
4.19774,9674
4.21947,9473
4.24121,9263
4.26294,9255
4.28467,8995
4.30641,8913
4.32814,8838
4.34987,8726
4.3716,8549
4.39334,8449
4.41507,8303
4.4368,8092
4.45854,8210
4.48027,7962
4.502,8162
4.52373,7866
4.54547,7739
4.5672,7735
4.58893,7624
4.61067,7477
4.6324,7590
4.65413,7417
4.67586,7188
4.6976,7132
4.71933,7182
4.74106,6924
4.7628,7050
4.78453,6949
4.80626,6947
4.828,6769
4.84973,6796
4.87146,6814
4.89319,6676
4.91493,6748
4.93666,6554
4.95839,6502
4.98013,6382
5.00186,6420
5.02359,6447
5.04532,6320
5.06706,6513
5.08879,6313
5.11052,6243
5.13226,6138
5.15399,6145
5.17572,6166
5.19745,5990
5.21919,6029
5.24092,6150
5.26265,5967
5.28439,6067
5.30612,5994
5.32785,6036
5.34958,6027
5.37132,5928
5.39305,5864
5.41478,5848
5.43652,5891
5.45825,5780
5.47998,5822
5.50171,5702
5.52345,5815
5.54518,5762
5.56691,5820
5.58865,5807
5.61038,5700
5.63211,5736
5.65384,5659
5.67558,5710
5.69731,5559
5.71904,5603
5.74078,5620
5.76251,5640
5.78424,5608
5.80597,5460
5.82771,5646
5.84944,5569
5.87117,5821
5.89291,5726
5.91464,5611
5.93637,5629
5.9581,5856
5.97984,5668
6.00157,5766
6.0233,5655
6.04504,5727
6.06677,5777
6.0885,5594
6.11024,5771
6.13197,5599
6.1537,5706
6.17543,5645
6.19717,5709
6.2189,5875
6.24063,5631
6.26237,5737
6.2841,5764
6.30583,5880
6.32756,5826
6.3493,5737
6.37103,5764
6.39276,5770
6.4145,5844
6.43623,5910
6.45796,5887
6.47969,5888
6.50143,5836
6.52316,5861
6.54489,5844
6.56663,5952
6.58836,5949
6.61009,5942
6.63182,5859
6.65356,5902
6.67529,5751
6.69702,5910
6.71876,5941
6.74049,5930
6.76222,5844
6.78395,5986
6.80569,6065
6.82742,6009
6.84915,5987
6.87089,6038
6.89262,6043
6.91435,5901
6.93608,5943
6.95782,6162
6.97955,6001
7.00128,6110
7.02302,6131
7.04475,5991
7.06648,6113
7.08821,6124
7.10995,6135
7.13168,6135
7.15341,6115
7.17515,6092
7.19688,6144
7.21861,6273
7.24034,6127
7.26208,6217
7.28381,6172
7.30554,6198
7.32728,6261
7.34901,6250
7.37074,6390
7.39247,6205
7.41421,6109
7.43594,6338
7.45767,6269
7.47941,6209
7.50114,6404
7.52287,6360
7.54461,6505
7.56634,6380
7.58807,6394
7.6098,6530
7.63154,6335
7.65327,6416
7.675,6225
7.69674,6371
7.71847,6385
7.7402,6301
7.76193,6216
7.78367,6270
7.8054,6373
7.82713,6498
7.84887,6414
7.8706,6488
7.89233,6303
7.91406,6629
7.9358,6386
7.95753,6425
7.97926,6472
8.001,6575
8.02273,6605
8.04446,6621
8.06619,6653
8.08793,6358
8.10966,6495
8.13139,6565
8.15313,6516
8.17486,6599
8.19659,6652
8.21832,6683
8.24006,6574
8.26179,6701
8.28352,6762
8.30526,6601
8.32699,6665
8.34872,6644
8.37045,6744
8.39219,6768
8.41392,6576
8.43565,6859
8.45739,6674
8.47912,6818
8.50085,6847
8.52258,6789
8.54432,6671
8.56605,6945
8.58778,6854
8.60952,6906
8.63125,6859
8.65298,6734
8.67471,6888
8.69645,6884
8.71818,6760
8.73991,6898
8.76165,6930
8.78338,6928
8.80511,6921
8.82685,6751
8.84858,6992
8.87031,6944
8.89204,6884
8.91378,7000
8.93551,7043
8.95724,6922
8.97898,7079
9.00071,7022
9.02244,7115
9.04417,7196
9.06591,6997
9.08764,7092
9.10937,6983
9.13111,7228
9.15284,7083
9.17457,7134
9.1963,7365
9.21804,7301
9.23977,7290
9.2615,7213
9.28324,7348
9.30497,7170
9.3267,7515
9.34843,7272
9.37017,7420
9.3919,7454
9.41363,7366
9.43537,7593
9.4571,7590
9.47883,7629
9.50056,7687
9.5223,7730
9.54403,8085
9.56576,7892
9.5875,7955
9.60923,8261
9.63096,8033
9.65269,8184
9.67443,8287
9.69616,8477
9.71789,8462
9.73963,8461
9.76136,8504
9.78309,8650
9.80482,8501
9.82656,8729
9.84829,8729
9.87002,8686
9.89176,8705
9.91349,8598
9.93522,8519
9.95695,8192
9.97869,8136
10.0004,7899
10.0222,7809
10.0439,7600
10.0656,7636
10.0874,7497
10.1091,7430
10.1308,7381
10.1526,7292
10.1743,7163
10.196,7047
10.2177,7267
10.2395,7024
10.2612,7021
10.2829,7018
10.3047,6836
10.3264,6865
10.3481,6666
10.3699,6911
10.3916,6771
10.4133,6768
10.4351,6647
10.4568,6560
10.4785,6422
10.5003,6542
10.522,6598
10.5437,6485
10.5655,6511
10.5872,6278
10.6089,6493
10.6307,6320
10.6524,6352
10.6741,6036
10.6959,6014
10.7176,6047
10.7393,6002
10.7611,5822
10.7828,5882
10.8045,5792
10.8263,5649
10.848,5637
10.8697,5727
10.8915,5702
10.9132,5561
10.9349,5533
10.9567,5614
10.9784,5471
11.0001,5463
11.0219,5340
11.0436,5242
11.0653,5216
11.0871,5217
11.1088,5188
11.1305,5210
11.1523,5133
11.174,5099
11.1957,5167
11.2175,4935
11.2392,4926
11.2609,4858
11.2827,4839
11.3044,4789
11.3261,4899
11.3479,4784
11.3696,4771
11.3913,4651
11.4131,4748
11.4348,4695
11.4565,4624
11.4783,4622
11.5,4601
11.5217,4536
11.5435,4368
11.5652,4370
11.5869,4306
11.6087,4372
11.6304,4351
11.6521,4321
11.6739,4334
11.6956,4200
11.7173,4206
11.7391,4179
11.7608,4244
11.7825,4085
11.8042,4140
11.826,4047
11.8477,4174
11.8694,4083
11.8912,4053
11.9129,4073
11.9346,4093
11.9564,4017
11.9781,3923
11.9998,3908
12.0216,3828
12.0433,3769
12.065,3878
12.0868,3952
12.1085,3907
12.1302,3793
12.152,3851
12.1737,3775
12.1954,3784
12.2172,3721
12.2389,3826
12.2606,3734
12.2824,3747
12.3041,3748
12.3258,3739
12.3476,3612
12.3693,3562
12.391,3677
12.4128,3593
12.4345,3627
12.4562,3524
12.478,3590
12.4997,3554
12.5214,3560
12.5432,3483
12.5649,3603
12.5866,3536
12.6084,3495
12.6301,3540
12.6518,3463
12.6736,3536
12.6953,3389
12.717,3343
12.7388,3360
12.7605,3428
12.7822,3428
12.804,3402
12.8257,3307
12.8474,3334
12.8692,3217
12.8909,3372
12.9126,3339
12.9344,3436
12.9561,3265
12.9778,3422
12.9996,3276
13.0213,3361
13.043,3383
13.0648,3423
13.0865,3238
13.1082,3356
13.13,3352
13.1517,3303
13.1734,3120
13.1952,3226
13.2169,3222
13.2386,3359
13.2604,3236
13.2821,3208
13.3038,3215
13.3256,3250
13.3473,3204
13.369,3274
13.3907,3031
13.4125,3159
13.4342,3166
13.4559,3174
13.4777,3094
13.4994,3083
13.5211,3172
13.5429,3239
13.5646,3164
13.5863,3092
13.6081,3148
13.6298,3003
13.6515,3021
13.6733,3102
13.695,2999
13.7167,3039
13.7385,3126
13.7602,3145
13.7819,3074
13.8037,3102
13.8254,3092
13.8471,3012
13.8689,3099
13.8906,3164
13.9123,3038
13.9341,3027
13.9558,3049
13.9775,3130
13.9993,3044
14.021,3068
14.0427,2984
14.0645,2937
14.0862,3054
14.1079,3048
14.1297,3196
14.1514,3165
14.1731,3090
14.1949,3174
14.2166,2968
14.2383,3010
14.2601,3054
14.2818,2958
14.3035,3057
14.3253,2958
14.347,3066
14.3687,3085
14.3905,2980
14.4122,3019
14.4339,2986
14.4557,2953
14.4774,2930
14.4991,3039
14.5209,2995
14.5426,3076
14.5643,3158
14.5861,3002
14.6078,3077
14.6295,3061
14.6513,3056
14.673,3015
14.6947,2968
14.7165,2976
14.7382,3047
14.7599,3046
14.7817,3068
14.8034,3071
14.8251,3077
14.8469,3025
14.8686,3066
14.8903,3021
14.9121,3072
14.9338,3097
14.9555,3195
14.9773,2980
14.999,2963
15.0207,3029
15.0424,2884
15.0642,2977
15.0859,2921
15.1076,3081
15.1294,2962
15.1511,3037
15.1728,3012
15.1946,3027
15.2163,3030
15.238,3093
15.2598,2998
15.2815,3084
15.3032,2987
15.325,2976
15.3467,3009
15.3684,3027
15.3902,3013
15.4119,3083
15.4336,2910
15.4554,2991
15.4771,2974
15.4988,3045
15.5206,2929
15.5423,2985
15.564,2970
15.5858,2896
15.6075,3000
15.6292,2992
15.651,2909
15.6727,3136
15.6944,3056
15.7162,2982
15.7379,3068
15.7596,3029
15.7814,3000
15.8031,2972
15.8248,2949
15.8466,2952
15.8683,2851
15.89,2888
15.9118,2839
15.9335,2989
15.9552,2843
15.977,3039
15.9987,2899
16.0204,2975
16.0422,2939
16.0639,2974
16.0856,2978
16.1074,2909
16.1291,3000
16.1508,2943
16.1726,2970
16.1943,2925
16.216,2886
16.2378,2952
16.2595,2944
16.2812,2939
16.303,2929
16.3247,2820
16.3464,2915
16.3682,2897
16.3899,2950
16.4116,2869
16.4334,2911
16.4551,2937
16.4768,2951
16.4986,2984
16.5203,2935
16.542,2884
16.5638,2901
16.5855,2916
16.6072,2889
16.6289,2983
16.6507,2927
16.6724,2895
16.6941,2870
16.7159,2938
16.7376,2856
16.7593,2988
16.7811,3021
16.8028,3036
16.8245,3004
16.8463,2948
16.868,2908
16.8897,2901
16.9115,2878
16.9332,2884
16.9549,2949
16.9767,2948
16.9984,2855
17.0201,2855
17.0419,2982
17.0636,2925
17.0853,2801
17.1071,2925
17.1288,2982
17.1505,2923
17.1723,2803
17.194,2974
17.2157,2967
17.2375,3002
17.2592,2816
17.2809,2875
17.3027,3038
17.3244,2900
17.3461,2897
17.3679,2927
17.3896,2957
17.4113,2946
17.4331,2801
17.4548,2903
17.4765,3029
17.4983,2938
17.52,2973
17.5417,2983
17.5635,2965
17.5852,2908
17.6069,2921
17.6287,2897
17.6504,2907
17.6721,2887
17.6939,2842
17.7156,2858
17.7373,2943
17.7591,2930
17.7808,2939
17.8025,2824
17.8243,2987
17.846,2949
17.8677,3025
17.8895,2859
17.9112,2931
17.9329,2911
17.9547,2985
17.9764,2940
17.9981,2984
18.0199,2830
18.0416,3067
18.0633,3000
18.0851,2915
18.1068,2978
18.1285,2923
18.1503,2917
18.172,2953
18.1937,2924
18.2154,2995
18.2372,2871
18.2589,2900
18.2806,3016
18.3024,3002
18.3241,2928
18.3458,3039
18.3676,2984
18.3893,3001
18.411,2983
18.4328,2959
18.4545,2982
18.4762,2950
18.498,2992
18.5197,3095
18.5414,2903
18.5632,2911
18.5849,2901
18.6066,2984
18.6284,3015
18.6501,2976
18.6718,3069
18.6936,2991
18.7153,2966
18.737,2938
18.7588,3100
18.7805,2785
18.8022,2974
18.824,2999
18.8457,2908
18.8674,3039
18.8892,3089
18.9109,2986
18.9326,3071
18.9544,2995
18.9761,3012
18.9978,3088
19.0196,3023
19.0413,3022
19.063,3123
19.0848,3009
19.1065,3071
19.1282,3057
19.15,2936
19.1717,3090
19.1934,3088
19.2152,3102
19.2369,3106
19.2586,3042
19.2804,3119
19.3021,3066
19.3238,3178
19.3456,3040
19.3673,2986
19.389,3065
19.4108,3163
19.4325,3126
19.4542,3135
19.476,3177
19.4977,3079
19.5194,3162
19.5412,3140
19.5629,3171
19.5846,3134
19.6064,3111
19.6281,3150
19.6498,3211
19.6716,3203
19.6933,3204
19.715,3162
19.7368,3132
19.7585,3265
19.7802,3265
19.8019,3336
19.8237,3144
19.8454,3416
19.8671,3277
19.8889,3332
19.9106,3274
19.9323,3381
19.9541,3458
19.9758,3446
19.9975,3485
20.0193,3489
20.041,3428
20.0627,3416
20.0845,3450
20.1062,3391
20.1279,3434
20.1497,3530
20.1714,3480
20.1931,3589
20.2149,3482
20.2366,3520
20.2583,3518
20.2801,3569
20.3018,3443
20.3235,3462
20.3453,3419
20.367,3359
20.3887,3299
20.4105,3256
20.4322,3338
20.4539,3201
20.4757,3178
20.4974,3321
20.5191,3240
20.5409,3170
20.5626,3203
20.5843,3177
20.6061,3240
20.6278,3141
20.6495,3278
20.6713,3098
20.693,3163
20.7147,3348
20.7365,3134
20.7582,3131
20.7799,3169
20.8017,3145
20.8234,3187
20.8451,3160
20.8669,3235
20.8886,3165
20.9103,3216
20.9321,3318
20.9538,3056
20.9755,3152
20.9973,3147
21.019,3313
21.0407,3126
21.0625,3194
21.0842,3193
21.1059,3106
21.1277,3139
21.1494,3219
21.1711,3219
21.1929,3120
21.2146,3250
21.2363,3184
21.2581,3085
21.2798,3149
21.3015,3060
21.3233,3208
21.345,3165
21.3667,3150
21.3884,3114
21.4102,3189
21.4319,3072
21.4536,3062
21.4754,3155
21.4971,3158
21.5188,3076
21.5406,3107
21.5623,3098
21.584,3154
21.6058,3036
21.6275,3127
21.6492,3087
21.671,3116
21.6927,3081
21.7144,3158
21.7362,3159
21.7579,3091
21.7796,3077
21.8014,3172
21.8231,3238
21.8448,3148
21.8666,3043
21.8883,3083
21.91,3264
21.9318,3048
21.9535,3024
21.9752,3274
21.997,3179
22.0187,3122
22.0404,3125
22.0622,3112
22.0839,3041
22.1056,3259
22.1274,3252
22.1491,3195
22.1708,3083
22.1926,3120
22.2143,3117
22.236,3242
22.2578,3229
22.2795,3277
22.3012,3296
22.323,3174
22.3447,3246
22.3664,3276
22.3882,3369
22.4099,3312
22.4316,3308
22.4534,3437
22.4751,3289
22.4968,3480
22.5186,3454
22.5403,3433
22.562,3460
22.5838,3419
22.6055,3532
22.6272,3486
22.649,3457
22.6707,3465
22.6924,3538
22.7142,3487
22.7359,3510
22.7576,3566
22.7794,3586
22.8011,3520
22.8228,3517
22.8446,3507
22.8663,3479
22.888,3579
22.9098,3543
22.9315,3528
22.9532,3339
22.9749,3520
22.9967,3551
23.0184,3600
23.0401,3404
23.0619,3594
23.0836,3467
23.1053,3543
23.1271,3480
23.1488,3453
23.1705,3379
23.1923,3458
23.214,3466
23.2357,3471
23.2575,3525
23.2792,3505
23.3009,3424
23.3227,3407
23.3444,3463
23.3661,3582
23.3879,3442
23.4096,3401
23.4313,3634
23.4531,3487
23.4748,3403
23.4965,3382
23.5183,3491
23.54,3458
23.5617,3463
23.5835,3413
23.6052,3495
23.6269,3498
23.6487,3549
23.6704,3378
23.6921,3410
23.7139,3563
23.7356,3518
23.7573,3611
23.7791,3549
23.8008,3592
23.8225,3545
23.8443,3636
23.866,3772
23.8877,3709
23.9095,3734
23.9312,3652
23.9529,3598
23.9747,3527
23.9964,3485
24.0181,3448
24.0399,3436
24.0616,3461
24.0833,3334
24.1051,3486
24.1268,3438
24.1485,3420
24.1703,3330
24.192,3324
24.2137,3301
24.2355,3295
24.2572,3405
24.2789,3281
24.3007,3284
24.3224,3287
24.3441,3417
24.3659,3374
24.3876,3438
24.4093,3304
24.4311,3332
24.4528,3479
24.4745,3512
24.4963,3348
24.518,3429
24.5397,3246
24.5615,3260
24.5832,3275
24.6049,3278
24.6266,3415
24.6484,3323
24.6701,3352
24.6918,3318
24.7136,3434
24.7353,3382
24.757,3397
24.7788,3346
24.8005,3360
24.8222,3405
24.844,3453
24.8657,3498
24.8874,3445
24.9092,3473
24.9309,3425
24.9526,3448
24.9744,3513
24.9961,3439
25.0178,3368
25.0396,3408
25.0613,3455
25.083,3522
25.1048,3520
25.1265,3440
25.1482,3471
25.17,3508
25.1917,3439
25.2134,3547
25.2352,3554
25.2569,3520
25.2786,3348
25.3004,3545
25.3221,3505
25.3438,3490
25.3656,3506
25.3873,3320
25.409,3445
25.4308,3450
25.4525,3321
25.4742,3329
25.496,3495
25.5177,3241
25.5394,3429
25.5612,3400
25.5829,3258
25.6046,3330
25.6264,3324
25.6481,3357
25.6698,3420
25.6916,3432
25.7133,3295
25.735,3342
25.7568,3437
25.7785,3409
25.8002,3308
25.822,3330
25.8437,3344
25.8654,3318
25.8872,3496
25.9089,3323
25.9306,3238
25.9524,3317
25.9741,3292
25.9958,3352
26.0176,3389
26.0393,3267
26.061,3435
26.0828,3368
26.1045,3301
26.1262,3296
26.148,3390
26.1697,3413
26.1914,3325
26.2131,3321
26.2349,3377
26.2566,3298
26.2783,3316
26.3001,3355
26.3218,3392
26.3435,3378
26.3653,3376
26.387,3321
26.4087,3351
26.4305,3315
26.4522,3288
26.4739,3203
26.4957,3351
26.5174,3329
26.5391,3401
26.5609,3423
26.5826,3345
26.6043,3401
26.6261,3445
26.6478,3340
26.6695,3273
26.6913,3304
26.713,3382
26.7347,3253
26.7565,3443
26.7782,3323
26.7999,3432
26.8217,3385
26.8434,3386
26.8651,3341
26.8869,3208
26.9086,3409
26.9303,3422
26.9521,3328
26.9738,3402
26.9955,3429
27.0173,3331
27.039,3350
27.0607,3305
27.0825,3352
27.1042,3422
27.1259,3298
27.1477,3418
27.1694,3474
27.1911,3367
27.2129,3397
27.2346,3355
27.2563,3345
27.2781,3447
27.2998,3417
27.3215,3345
27.3433,3422
27.365,3367
27.3867,3307
27.4085,3296
27.4302,3344
27.4519,3431
27.4737,3415
27.4954,3408
27.5171,3374
27.5389,3262
27.5606,3386
27.5823,3296
27.6041,3403
27.6258,3345
27.6475,3287
27.6693,3494
27.691,3348
27.7127,3341
27.7345,3368
27.7562,3393
27.7779,3388
27.7996,3360
27.8214,3288
27.8431,3347
27.8648,3278
27.8866,3389
27.9083,3304
27.93,3296
27.9518,3354
27.9735,3323
27.9952,3255
28.017,3374
28.0387,3357
28.0604,3367
28.0822,3352
28.1039,3391
28.1256,3408
28.1474,3357
28.1691,3360
28.1908,3418
28.2126,3321
28.2343,3357
28.256,3392
28.2778,3369
28.2995,3429
28.3212,3321
28.343,3354
28.3647,3255
28.3864,3348
28.4082,3449
28.4299,3341
28.4516,3447
28.4734,3336
28.4951,3328
28.5168,3349
28.5386,3438
28.5603,3332
28.582,3312
28.6038,3307
28.6255,3462
28.6472,3354
28.669,3367
28.6907,3372
28.7124,3491
28.7342,3435
28.7559,3478
28.7776,3441
28.7994,3310
28.8211,3542
28.8428,3569
28.8646,3589
28.8863,3536
28.908,3659
28.9298,3682
28.9515,3775
28.9732,3627
28.995,3592
29.0167,3842
29.0384,3717
29.0602,3826
29.0819,3837
29.1036,3864
29.1254,3769
29.1471,3773
29.1688,3748
29.1906,3742
29.2123,3854
29.234,3637
29.2558,3816
29.2775,3710
29.2992,3681
29.321,3498
29.3427,3700
29.3644,3662
29.3861,3682
29.4079,3677
29.4296,3669
29.4513,3805
29.4731,3647
29.4948,3769
29.5165,3692
29.5383,3790
29.56,3695
29.5817,3681
29.6035,3615
29.6252,3616
29.6469,3764
29.6687,3710
29.6904,3719
29.7121,3789
29.7339,3757
29.7556,3757
29.7773,3623
29.7991,3781
29.8208,3753
29.8425,3822
29.8643,3917
29.886,3803
29.9077,3971
29.9295,4046
29.9512,3980
29.9729,4015
29.9947,4039