File: clay-plate-XRD-S2-2022/ENVT4461 S-14 Mg+Gly.csv
"Angle","Counts"
3.00243,25545
3.02417,25130
3.0459,24430
3.06763,24117
3.08936,23244
3.1111,22982
3.13283,22609
3.15456,22253
3.1763,21818
3.19803,21147
3.21976,21117
3.24149,20681
3.26323,20260
3.28496,19824
3.30669,19771
3.32843,19417
3.35016,19090
3.37189,18542
3.39363,18599
3.41536,18093
3.43709,17851
3.45882,17604
3.48056,17376
3.50229,17233
3.52402,16702
3.54576,16671
3.56749,16396
3.58922,16109
3.61095,16027
3.63269,15255
3.65442,15119
3.67615,15112
3.69789,15138
3.71962,14677
3.74135,14446
3.76308,14267
3.78482,14029
3.80655,13889
3.82828,13593
3.85002,13616
3.87175,13389
3.89348,13408
3.91521,12832
3.93695,13029
3.95868,12660
3.98041,12440
4.00215,12628
4.02388,12185
4.04561,12033
4.06734,11950
4.08908,11821
4.11081,11743
4.13254,11444
4.15428,11321
4.17601,11272
4.19774,11096
4.21947,11120
4.24121,10862
4.26294,10914
4.28467,10819
4.30641,10514
4.32814,10339
4.34987,10401
4.3716,10313
4.39334,10221
4.41507,10066
4.4368,9936
4.45854,9829
4.48027,10016
4.502,9650
4.52373,9598
4.54547,9581
4.5672,9290
4.58893,9469
4.61067,9752
4.6324,9328
4.65413,9424
4.67586,9174
4.6976,9193
4.71933,9043
4.74106,9112
4.7628,8944
4.78453,8891
4.80626,8834
4.828,8869
4.84973,8591
4.87146,8682
4.89319,8551
4.91493,8642
4.93666,8385
4.95839,8558
4.98013,8620
5.00186,8400
5.02359,8410
5.04532,8343
5.06706,8198
5.08879,8185
5.11052,8196
5.13226,8143
5.15399,8015
5.17572,7961
5.19745,8150
5.21919,8005
5.24092,8052
5.26265,7913
5.28439,7849
5.30612,7895
5.32785,7792
5.34958,7853
5.37132,7621
5.39305,7746
5.41478,7733
5.43652,7489
5.45825,7839
5.47998,7616
5.50171,7605
5.52345,7631
5.54518,7429
5.56691,7685
5.58865,7572
5.61038,7592
5.63211,7632
5.65384,7520
5.67558,7555
5.69731,7461
5.71904,7601
5.74078,7339
5.76251,7453
5.78424,7530
5.80597,7287
5.82771,7348
5.84944,7322
5.87117,7406
5.89291,7375
5.91464,7523
5.93637,7180
5.9581,7245
5.97984,7154
6.00157,7382
6.0233,7273
6.04504,7220
6.06677,7060
6.0885,7099
6.11024,7160
6.13197,7187
6.1537,7371
6.17543,7156
6.19717,7264
6.2189,7153
6.24063,7148
6.26237,7194
6.2841,7204
6.30583,7061
6.32756,7022
6.3493,7178
6.37103,7219
6.39276,7179
6.4145,7228
6.43623,7130
6.45796,7141
6.47969,7162
6.50143,7081
6.52316,7078
6.54489,6978
6.56663,6901
6.58836,7171
6.61009,6901
6.63182,6951
6.65356,7059
6.67529,7016
6.69702,7052
6.71876,6888
6.74049,7106
6.76222,6788
6.78395,6796
6.80569,6793
6.82742,6988
6.84915,6908
6.87089,6774
6.89262,6790
6.91435,6823
6.93608,6908
6.95782,6788
6.97955,6846
7.00128,6822
7.02302,6810
7.04475,6996
7.06648,6773
7.08821,6783
7.10995,6642
7.13168,6736
7.15341,6523
7.17515,6835
7.19688,6704
7.21861,6576
7.24034,6618
7.26208,6558
7.28381,6636
7.30554,6726
7.32728,6573
7.34901,6475
7.37074,6527
7.39247,6574
7.41421,6683
7.43594,6608
7.45767,6581
7.47941,6387
7.50114,6468
7.52287,6489
7.54461,6583
7.56634,6556
7.58807,6503
7.6098,6528
7.63154,6468
7.65327,6523
7.675,6338
7.69674,6473
7.71847,6519
7.7402,6500
7.76193,6561
7.78367,6401
7.8054,6406
7.82713,6457
7.84887,6505
7.8706,6333
7.89233,6318
7.91406,6331
7.9358,6337
7.95753,6239
7.97926,6456
8.001,6424
8.02273,6390
8.04446,6439
8.06619,6324
8.08793,6362
8.10966,6469
8.13139,6313
8.15313,6307
8.17486,6375
8.19659,6306
8.21832,6226
8.24006,6375
8.26179,6287
8.28352,6228
8.30526,6266
8.32699,6136
8.34872,6277
8.37045,6210
8.39219,6316
8.41392,6070
8.43565,6222
8.45739,6219
8.47912,6219
8.50085,6208
8.52258,6207
8.54432,6339
8.56605,6273
8.58778,6099
8.60952,6295
8.63125,6187
8.65298,6186
8.67471,6258
8.69645,6235
8.71818,6342
8.73991,6061
8.76165,5981
8.78338,6312
8.80511,6279
8.82685,6235
8.84858,6125
8.87031,6264
8.89204,6208
8.91378,6105
8.93551,6220
8.95724,6364
8.97898,6218
9.00071,6237
9.02244,6272
9.04417,6159
9.06591,6245
9.08764,6323
9.10937,6260
9.13111,6166
9.15284,6353
9.17457,6271
9.1963,6284
9.21804,6306
9.23977,6365
9.2615,6186
9.28324,6335
9.30497,6340
9.3267,6455
9.34843,6423
9.37017,6444
9.3919,6431
9.41363,6315
9.43537,6458
9.4571,6596
9.47883,6665
9.50056,6565
9.5223,6644
9.54403,6609
9.56576,6691
9.5875,6696
9.60923,6710
9.63096,6682
9.65269,6838
9.67443,6825
9.69616,6636
9.71789,6809
9.73963,6927
9.76136,6922
9.78309,7141
9.80482,7136
9.82656,7111
9.84829,7089
9.87002,7177
9.89176,7195
9.91349,7324
9.93522,7248
9.95695,7268
9.97869,7079
10.0004,7008
10.0222,7211
10.0439,6994
10.0656,6892
10.0874,6855
10.1091,6859
10.1308,6593
10.1526,6744
10.1743,6609
10.196,6576
10.2177,6563
10.2395,6572
10.2612,6459
10.2829,6469
10.3047,6493
10.3264,6412
10.3481,6414
10.3699,6321
10.3916,6413
10.4133,6356
10.4351,6376
10.4568,6378
10.4785,6282
10.5003,6189
10.522,6335
10.5437,6217
10.5655,6419
10.5872,6412
10.6089,6375
10.6307,6208
10.6524,6265
10.6741,6370
10.6959,6253
10.7176,6275
10.7393,6293
10.7611,6256
10.7828,6196
10.8045,6241
10.8263,6178
10.848,6257
10.8697,6160
10.8915,6201
10.9132,6160
10.9349,6035
10.9567,6137
10.9784,6232
11.0001,6145
11.0219,6045
11.0436,6130
11.0653,5928
11.0871,5885
11.1088,6085
11.1305,6192
11.1523,6067
11.174,6082
11.1957,5996
11.2175,6039
11.2392,6014
11.2609,6106
11.2827,6002
11.3044,5988
11.3261,6009
11.3479,5973
11.3696,6240
11.3913,6197
11.4131,6203
11.4348,6050
11.4565,6098
11.4783,6148
11.5,5980
11.5217,5982
11.5435,6156
11.5652,6231
11.5869,5939
11.6087,6092
11.6304,6063
11.6521,6063
11.6739,6044
11.6956,6063
11.7173,6003
11.7391,6008
11.7608,6124
11.7825,6038
11.8042,5954
11.826,5995
11.8477,6044
11.8694,6196
11.8912,5992
11.9129,5957
11.9346,6105
11.9564,6113
11.9781,6098
11.9998,6058
12.0216,6183
12.0433,6093
12.065,6192
12.0868,6098
12.1085,6203
12.1302,6208
12.152,6135
12.1737,6093
12.1954,6007
12.2172,6142
12.2389,6044
12.2606,6110
12.2824,6104
12.3041,6042
12.3258,6058
12.3476,6187
12.3693,6207
12.391,6155
12.4128,6377
12.4345,6149
12.4562,6326
12.478,6121
12.4997,6381
12.5214,6324
12.5432,6270
12.5649,6193
12.5866,6194
12.6084,6207
12.6301,6352
12.6518,6397
12.6736,6361
12.6953,6227
12.717,6341
12.7388,6285
12.7605,6361
12.7822,6466
12.804,6480
12.8257,6283
12.8474,6425
12.8692,6581
12.8909,6532
12.9126,6483
12.9344,6577
12.9561,6313
12.9778,6594
12.9996,6707
13.0213,6607
13.043,6768
13.0648,6988
13.0865,6823
13.1082,6746
13.13,6991
13.1517,7073
13.1734,6967
13.1952,7135
13.2169,7135
13.2386,7132
13.2604,7251
13.2821,7203
13.3038,7441
13.3256,7639
13.3473,7768
13.369,7780
13.3907,7904
13.4125,7883
13.4342,8286
13.4559,8399
13.4777,8579
13.4994,8996
13.5211,9073
13.5429,9151
13.5646,9503
13.5863,9776
13.6081,10169
13.6298,10362
13.6515,10710
13.6733,11260
13.695,11742
13.7167,12212
13.7385,12656
13.7602,13206
13.7819,13993
13.8037,14766
13.8254,15380
13.8471,16422
13.8689,16681
13.8906,17613
13.9123,18355
13.9341,18797
13.9558,19574
13.9775,19942
13.9993,20404
14.021,20537
14.0427,20036
14.0645,19409
14.0862,18126
14.1079,16420
14.1297,15245
14.1514,13619
14.1731,12296
14.1949,11095
14.2166,10294
14.2383,9450
14.2601,8774
14.2818,8186
14.3035,7812
14.3253,7414
14.347,7018
14.3687,6674
14.3905,6537
14.4122,6273
14.4339,6136
14.4557,5789
14.4774,5809
14.4991,5548
14.5209,5393
14.5426,5296
14.5643,5137
14.5861,5062
14.6078,4971
14.6295,4940
14.6513,4687
14.673,4676
14.6947,4650
14.7165,4643
14.7382,4473
14.7599,4321
14.7817,4341
14.8034,4319
14.8251,4280
14.8469,4205
14.8686,4240
14.8903,3962
14.9121,3941
14.9338,4091
14.9555,3984
14.9773,4059
14.999,3882
15.0207,3903
15.0424,3882
15.0642,3846
15.0859,3841
15.1076,3758
15.1294,3708
15.1511,3687
15.1728,3761
15.1946,3797
15.2163,3577
15.238,3522
15.2598,3612
15.2815,3588
15.3032,3489
15.325,3563
15.3467,3511
15.3684,3636
15.3902,3500
15.4119,3344
15.4336,3398
15.4554,3381
15.4771,3410
15.4988,3339
15.5206,3345
15.5423,3399
15.564,3360
15.5858,3295
15.6075,3347
15.6292,3297
15.651,3269
15.6727,3293
15.6944,3352
15.7162,3215
15.7379,3217
15.7596,3292
15.7814,3220
15.8031,3143
15.8248,3172
15.8466,3146
15.8683,3032
15.89,3155
15.9118,3105
15.9335,3219
15.9552,3108
15.977,3060
15.9987,3147
16.0204,3009
16.0422,3106
16.0639,3035
16.0856,2996
16.1074,2978
16.1291,3170
16.1508,2994
16.1726,3015
16.1943,3065
16.216,3108
16.2378,2949
16.2595,3006
16.2812,2910
16.303,3016
16.3247,2902
16.3464,2980
16.3682,2974
16.3899,2914
16.4116,3024
16.4334,3051
16.4551,2921
16.4768,2846
16.4986,2842
16.5203,3000
16.542,2825
16.5638,2967
16.5855,2941
16.6072,2842
16.6289,2774
16.6507,2904
16.6724,2880
16.6941,2929
16.7159,2860
16.7376,2796
16.7593,2812
16.7811,2937
16.8028,2876
16.8245,2809
16.8463,2858
16.868,2796
16.8897,2833
16.9115,2807
16.9332,2860
16.9549,2796
16.9767,2868
16.9984,2821
17.0201,2868
17.0419,2725
17.0636,2803
17.0853,2789
17.1071,2851
17.1288,2792
17.1505,2851
17.1723,2797
17.194,2791
17.2157,2837
17.2375,2786
17.2592,2817
17.2809,2723
17.3027,2697
17.3244,2778
17.3461,2786
17.3679,2626
17.3896,2755
17.4113,2702
17.4331,2805
17.4548,2695
17.4765,2777
17.4983,2725
17.52,2670
17.5417,2687
17.5635,2713
17.5852,2677
17.6069,2738
17.6287,2692
17.6504,2662
17.6721,2714
17.6939,2661
17.7156,2744
17.7373,2700
17.7591,2657
17.7808,2667
17.8025,2718
17.8243,2686
17.846,2703
17.8677,2700
17.8895,2654
17.9112,2558
17.9329,2677
17.9547,2603
17.9764,2734
17.9981,2636
18.0199,2607
18.0416,2547
18.0633,2665
18.0851,2690
18.1068,2721
18.1285,2601
18.1503,2634
18.172,2613
18.1937,2608
18.2154,2756
18.2372,2659
18.2589,2699
18.2806,2672
18.3024,2679
18.3241,2655
18.3458,2611
18.3676,2669
18.3893,2578
18.411,2678
18.4328,2544
18.4545,2707
18.4762,2641
18.498,2676
18.5197,2700
18.5414,2619
18.5632,2662
18.5849,2564
18.6066,2588
18.6284,2628
18.6501,2499
18.6718,2588
18.6936,2548
18.7153,2608
18.737,2666
18.7588,2734
18.7805,2672
18.8022,2561
18.824,2634
18.8457,2617
18.8674,2632
18.8892,2617
18.9109,2694
18.9326,2649
18.9544,2758
18.9761,2608
18.9978,2633
19.0196,2620
19.0413,2615
19.063,2752
19.0848,2610
19.1065,2618
19.1282,2679
19.15,2603
19.1717,2655
19.1934,2633
19.2152,2562
19.2369,2608
19.2586,2582
19.2804,2580
19.3021,2559
19.3238,2530
19.3456,2736
19.3673,2636
19.389,2583
19.4108,2704
19.4325,2590
19.4542,2584
19.476,2634
19.4977,2557
19.5194,2570
19.5412,2602
19.5629,2570
19.5846,2678
19.6064,2664
19.6281,2712
19.6498,2661
19.6716,2655
19.6933,2707
19.715,2691
19.7368,2563
19.7585,2719
19.7802,2654
19.8019,2702
19.8237,2671
19.8454,2660
19.8671,2622
19.8889,2675
19.9106,2723
19.9323,2707
19.9541,2697
19.9758,2689
19.9975,2742
20.0193,2787
20.041,2683
20.0627,2782
20.0845,2760
20.1062,2742
20.1279,2774
20.1497,2729
20.1714,2828
20.1931,2924
20.2149,2824
20.2366,2827
20.2583,2887
20.2801,2996
20.3018,2894
20.3235,2905
20.3453,2877
20.367,2952
20.3887,2962
20.4105,2809
20.4322,2776
20.4539,2839
20.4757,2852
20.4974,2937
20.5191,2811
20.5409,2861
20.5626,2858
20.5843,2739
20.6061,2801
20.6278,2740
20.6495,2760
20.6713,2738
20.693,2673
20.7147,2689
20.7365,2664
20.7582,2745
20.7799,2683
20.8017,2687
20.8234,2788
20.8451,2859
20.8669,2786
20.8886,2721
20.9103,2714
20.9321,2779
20.9538,2890
20.9755,2744
20.9973,2806
21.019,2763
21.0407,2695
21.0625,2782
21.0842,2781
21.1059,2757
21.1277,2687
21.1494,2752
21.1711,2785
21.1929,2717
21.2146,2585
21.2363,2687
21.2581,2742
21.2798,2746
21.3015,2611
21.3233,2715
21.345,2634
21.3667,2731
21.3884,2654
21.4102,2770
21.4319,2661
21.4536,2727
21.4754,2652
21.4971,2750
21.5188,2700
21.5406,2630
21.5623,2656
21.584,2756
21.6058,2723
21.6275,2736
21.6492,2680
21.671,2726
21.6927,2767
21.7144,2713
21.7362,2804
21.7579,2699
21.7796,2678
21.8014,2706
21.8231,2727
21.8448,2722
21.8666,2796
21.8883,2791
21.91,2712
21.9318,2783
21.9535,2764
21.9752,2800
21.997,2822
22.0187,2753
22.0404,2718
22.0622,2854
22.0839,2894
22.1056,2778
22.1274,2765
22.1491,2781
22.1708,2864
22.1926,2899
22.2143,2925
22.236,2988
22.2578,2946
22.2795,3055
22.3012,2952
22.323,3045
22.3447,2995
22.3664,3104
22.3882,3084
22.4099,3162
22.4316,3130
22.4534,3220
22.4751,3240
22.4968,3448
22.5186,3325
22.5403,3464
22.562,3385
22.5838,3433
22.6055,3617
22.6272,3545
22.649,3690
22.6707,3662
22.6924,3831
22.7142,3731
22.7359,3807
22.7576,4063
22.7794,4007
22.8011,3947
22.8228,4069
22.8446,4005
22.8663,3960
22.888,4032
22.9098,3933
22.9315,3890
22.9532,3834
22.9749,3877
22.9967,3859
23.0184,3912
23.0401,3755
23.0619,3756
23.0836,3725
23.1053,3726
23.1271,3831
23.1488,3802
23.1705,3787
23.1923,3735
23.214,3828
23.2357,3856
23.2575,3736
23.2792,3598
23.3009,3725
23.3227,3745
23.3444,3777
23.3661,3691
23.3879,3818
23.4096,3715
23.4313,3708
23.4531,3595
23.4748,3655
23.4965,3714
23.5183,3624
23.54,3700
23.5617,3617
23.5835,3625
23.6052,3622
23.6269,3755
23.6487,3660
23.6704,3637
23.6921,3635
23.7139,3735
23.7356,3674
23.7573,3585
23.7791,3619
23.8008,3681
23.8225,3611
23.8443,3599
23.866,3612
23.8877,3768
23.9095,3782
23.9312,3821
23.9529,3780
23.9747,3889
23.9964,3788
24.0181,3712
24.0399,3699
24.0616,3615
24.0833,3712
24.1051,3598
24.1268,3637
24.1485,3607
24.1703,3567
24.192,3661
24.2137,3616
24.2355,3761
24.2572,3675
24.2789,3638
24.3007,3649
24.3224,3722
24.3441,3637
24.3659,3524
24.3876,3659
24.4093,3544
24.4311,3635
24.4528,3620
24.4745,3528
24.4963,3550
24.518,3595
24.5397,3601
24.5615,3628
24.5832,3507
24.6049,3524
24.6266,3664
24.6484,3605
24.6701,3592
24.6918,3569
24.7136,3588
24.7353,3517
24.757,3493
24.7788,3384
24.8005,3483
24.8222,3490
24.844,3502
24.8657,3532
24.8874,3554
24.9092,3577
24.9309,3476
24.9526,3573
24.9744,3544
24.9961,3569
25.0178,3520
25.0396,3432
25.0613,3500
25.083,3412
25.1048,3392
25.1265,3536
25.1482,3438
25.17,3375
25.1917,3446
25.2134,3497
25.2352,3449
25.2569,3523
25.2786,3410
25.3004,3424
25.3221,3433
25.3438,3455
25.3656,3497
25.3873,3476
25.409,3532
25.4308,3408
25.4525,3533
25.4742,3484
25.496,3547
25.5177,3465
25.5394,3402
25.5612,3552
25.5829,3546
25.6046,3444
25.6264,3429
25.6481,3446
25.6698,3489
25.6916,3523
25.7133,3577
25.735,3553
25.7568,3359
25.7785,3411
25.8002,3562
25.822,3508
25.8437,3562
25.8654,3466
25.8872,3385
25.9089,3507
25.9306,3463
25.9524,3499
25.9741,3488
25.9958,3380
26.0176,3424
26.0393,3425
26.061,3556
26.0828,3491
26.1045,3456
26.1262,3483
26.148,3430
26.1697,3448
26.1914,3545
26.2131,3481
26.2349,3479
26.2566,3534
26.2783,3332
26.3001,3550
26.3218,3499
26.3435,3499
26.3653,3566
26.387,3427
26.4087,3503
26.4305,3540
26.4522,3463
26.4739,3418
26.4957,3519
26.5174,3491
26.5391,3491
26.5609,3572
26.5826,3643
26.6043,3385
26.6261,3506
26.6478,3467
26.6695,3565
26.6913,3578
26.713,3517
26.7347,3473
26.7565,3598
26.7782,3571
26.7999,3590
26.8217,3551
26.8434,3635
26.8651,3610
26.8869,3492
26.9086,3502
26.9303,3680
26.9521,3640
26.9738,3648
26.9955,3674
27.0173,3705
27.039,3547
27.0607,3590
27.0825,3641
27.1042,3622
27.1259,3685
27.1477,3696
27.1694,3603
27.1911,3699
27.2129,3794
27.2346,3724
27.2563,3617
27.2781,3812
27.2998,3803
27.3215,3835
27.3433,3837
27.365,3790
27.3867,3761
27.4085,3899
27.4302,3913
27.4519,3833
27.4737,4003
27.4954,3966
27.5171,3956
27.5389,3999
27.5606,4046
27.5823,4113
27.6041,3851
27.6258,4222
27.6475,4037
27.6693,4265
27.691,4127
27.7127,4213
27.7345,4382
27.7562,4372
27.7779,4176
27.7996,4317
27.8214,4382
27.8431,4366
27.8648,4530
27.8866,4679
27.9083,4751
27.93,4712
27.9518,4850
27.9735,4702
27.9952,4925
28.017,5169
28.0387,5008
28.0604,5037
28.0822,5184
28.1039,5363
28.1256,5389
28.1474,5488
28.1691,5752
28.1908,5780
28.2126,5997
28.2343,6145
28.256,6335
28.2778,6576
28.2995,6590
28.3212,7096
28.343,7268
28.3647,7633
28.3864,7938
28.4082,8346
28.4299,8818
28.4516,9537
28.4734,10150
28.4951,10903
28.5168,11683
28.5386,12514
28.5603,13460
28.582,14393
28.6038,15099
28.6255,16075
28.6472,16428
28.669,16668
28.6907,16300
28.7124,15623
28.7342,14632
28.7559,13889
28.7776,12889
28.7994,11930
28.8211,11121
28.8428,10374
28.8646,9869
28.8863,9495
28.908,8957
28.9298,8599
28.9515,8143
28.9732,8026
28.995,7840
29.0167,7695
29.0384,7467
29.0602,7245
29.0819,6999
29.1036,7029
29.1254,6960
29.1471,6726
29.1688,6832
29.1906,6427
29.2123,6417
29.234,6141
29.2558,6113
29.2775,6192
29.2992,5836
29.321,5763
29.3427,5769
29.3644,5690
29.3861,5710
29.4079,5505
29.4296,5397
29.4513,5391
29.4731,5206
29.4948,5268
29.5165,5228
29.5383,5303
29.56,5025
29.5817,5056
29.6035,5078
29.6252,4952
29.6469,4955
29.6687,4937
29.6904,4795
29.7121,4779
29.7339,4781
29.7556,4843
29.7773,4629
29.7991,4773
29.8208,4693
29.8425,4645
29.8643,4545
29.886,4489
29.9077,4568
29.9295,4561
29.9512,4566
29.9729,4418
29.9947,4485