File: clay-plate-XRD-S2-2022/ENVT4461 S-14 Mg.csv
"Angle","Counts"
3.00243,25955
3.02417,25245
3.0459,24733
3.06763,24384
3.08936,23582
3.1111,23277
3.13283,22893
3.15456,22184
3.1763,21867
3.19803,21630
3.21976,21395
3.24149,20777
3.26323,20474
3.28496,20306
3.30669,19676
3.32843,19591
3.35016,18963
3.37189,18568
3.39363,18228
3.41536,18077
3.43709,17738
3.45882,17706
3.48056,17241
3.50229,17177
3.52402,16853
3.54576,16589
3.56749,16334
3.58922,16267
3.61095,15973
3.63269,15814
3.65442,15580
3.67615,15163
3.69789,14974
3.71962,14989
3.74135,14445
3.76308,14332
3.78482,14076
3.80655,14034
3.82828,13708
3.85002,13680
3.87175,13254
3.89348,13227
3.91521,12990
3.93695,12656
3.95868,12680
3.98041,12560
4.00215,12355
4.02388,12399
4.04561,12280
4.06734,12029
4.08908,11769
4.11081,11776
4.13254,11378
4.15428,11233
4.17601,11369
4.19774,11055
4.21947,10899
4.24121,11008
4.26294,10797
4.28467,10604
4.30641,10425
4.32814,10435
4.34987,10530
4.3716,10241
4.39334,10069
4.41507,10118
4.4368,9850
4.45854,9845
4.48027,9709
4.502,9568
4.52373,9577
4.54547,9488
4.5672,9308
4.58893,9446
4.61067,9314
4.6324,9225
4.65413,8982
4.67586,8985
4.6976,8925
4.71933,8942
4.74106,8803
4.7628,8817
4.78453,8646
4.80626,8675
4.828,8661
4.84973,8509
4.87146,8636
4.89319,8552
4.91493,8252
4.93666,8296
4.95839,8162
4.98013,8184
5.00186,8193
5.02359,8198
5.04532,7960
5.06706,8116
5.08879,8147
5.11052,7972
5.13226,7946
5.15399,7928
5.17572,7780
5.19745,7864
5.21919,7803
5.24092,7788
5.26265,7780
5.28439,7591
5.30612,7819
5.32785,7823
5.34958,7728
5.37132,7583
5.39305,7622
5.41478,7663
5.43652,7428
5.45825,7260
5.47998,7401
5.50171,7442
5.52345,7584
5.54518,7348
5.56691,7350
5.58865,7438
5.61038,7369
5.63211,7264
5.65384,7185
5.67558,7186
5.69731,7308
5.71904,7327
5.74078,7131
5.76251,7178
5.78424,7205
5.80597,7203
5.82771,7238
5.84944,7194
5.87117,7033
5.89291,7158
5.91464,7278
5.93637,7079
5.9581,7089
5.97984,7100
6.00157,6961
6.0233,7025
6.04504,7086
6.06677,7167
6.0885,7302
6.11024,7130
6.13197,7216
6.1537,7172
6.17543,7032
6.19717,6962
6.2189,6975
6.24063,7168
6.26237,7155
6.2841,7085
6.30583,7131
6.32756,7039
6.3493,6991
6.37103,6853
6.39276,7148
6.4145,7019
6.43623,6890
6.45796,6965
6.47969,6993
6.50143,7095
6.52316,7014
6.54489,7141
6.56663,6914
6.58836,6999
6.61009,6890
6.63182,7037
6.65356,6967
6.67529,7232
6.69702,6936
6.71876,6905
6.74049,6886
6.76222,6901
6.78395,6992
6.80569,6933
6.82742,6900
6.84915,6709
6.87089,6727
6.89262,6814
6.91435,6868
6.93608,6745
6.95782,6820
6.97955,6848
7.00128,6643
7.02302,6851
7.04475,6823
7.06648,6739
7.08821,6737
7.10995,6892
7.13168,6587
7.15341,6690
7.17515,6622
7.19688,6801
7.21861,6637
7.24034,6581
7.26208,6560
7.28381,6694
7.30554,6582
7.32728,6631
7.34901,6580
7.37074,6513
7.39247,6649
7.41421,6791
7.43594,6758
7.45767,6575
7.47941,6561
7.50114,6492
7.52287,6543
7.54461,6597
7.56634,6630
7.58807,6683
7.6098,6515
7.63154,6501
7.65327,6454
7.675,6434
7.69674,6334
7.71847,6396
7.7402,6497
7.76193,6487
7.78367,6361
7.8054,6336
7.82713,6417
7.84887,6363
7.8706,6215
7.89233,6379
7.91406,6341
7.9358,6348
7.95753,6438
7.97926,6464
8.001,6332
8.02273,6408
8.04446,6387
8.06619,6278
8.08793,6145
8.10966,6267
8.13139,6185
8.15313,6369
8.17486,6258
8.19659,6234
8.21832,6127
8.24006,6176
8.26179,6249
8.28352,6147
8.30526,6283
8.32699,6143
8.34872,6126
8.37045,6183
8.39219,6090
8.41392,6138
8.43565,6196
8.45739,6378
8.47912,6437
8.50085,6182
8.52258,6054
8.54432,6145
8.56605,6180
8.58778,6046
8.60952,6157
8.63125,6111
8.65298,6026
8.67471,6165
8.69645,6037
8.71818,6017
8.73991,6142
8.76165,6116
8.78338,6185
8.80511,6092
8.82685,6103
8.84858,6061
8.87031,6045
8.89204,6053
8.91378,6215
8.93551,6139
8.95724,6054
8.97898,6047
9.00071,6041
9.02244,6076
9.04417,6057
9.06591,6004
9.08764,6122
9.10937,6059
9.13111,5996
9.15284,5973
9.17457,6022
9.1963,6085
9.21804,6076
9.23977,6027
9.2615,6088
9.28324,6211
9.30497,6047
9.3267,6080
9.34843,6112
9.37017,6092
9.3919,6086
9.41363,6169
9.43537,6147
9.4571,6023
9.47883,6129
9.50056,6295
9.5223,6263
9.54403,6163
9.56576,6238
9.5875,6281
9.60923,6360
9.63096,6350
9.65269,6245
9.67443,6340
9.69616,6319
9.71789,6478
9.73963,6384
9.76136,6480
9.78309,6535
9.80482,6400
9.82656,6382
9.84829,6569
9.87002,6451
9.89176,6557
9.91349,6573
9.93522,6571
9.95695,6605
9.97869,6500
10.0004,6377
10.0222,6278
10.0439,6376
10.0656,6272
10.0874,6310
10.1091,6329
10.1308,6238
10.1526,6069
10.1743,6031
10.196,5975
10.2177,5990
10.2395,5933
10.2612,6039
10.2829,5936
10.3047,5875
10.3264,5952
10.3481,5859
10.3699,6028
10.3916,5873
10.4133,5884
10.4351,5953
10.4568,5919
10.4785,5937
10.5003,5786
10.522,5757
10.5437,5881
10.5655,5893
10.5872,5774
10.6089,5892
10.6307,5725
10.6524,5915
10.6741,5861
10.6959,5878
10.7176,5674
10.7393,5642
10.7611,5574
10.7828,5573
10.8045,5565
10.8263,5678
10.848,5608
10.8697,5552
10.8915,5618
10.9132,5608
10.9349,5687
10.9567,5652
10.9784,5671
11.0001,5661
11.0219,5600
11.0436,5650
11.0653,5428
11.0871,5517
11.1088,5525
11.1305,5622
11.1523,5506
11.174,5548
11.1957,5430
11.2175,5688
11.2392,5547
11.2609,5557
11.2827,5513
11.3044,5528
11.3261,5523
11.3479,5341
11.3696,5475
11.3913,5701
11.4131,5514
11.4348,5547
11.4565,5577
11.4783,5543
11.5,5584
11.5217,5416
11.5435,5411
11.5652,5638
11.5869,5557
11.6087,5446
11.6304,5648
11.6521,5438
11.6739,5550
11.6956,5690
11.7173,5366
11.7391,5279
11.7608,5512
11.7825,5658
11.8042,5563
11.826,5732
11.8477,5563
11.8694,5422
11.8912,5515
11.9129,5622
11.9346,5503
11.9564,5573
11.9781,5406
11.9998,5716
12.0216,5755
12.0433,5628
12.065,5580
12.0868,5570
12.1085,5621
12.1302,5466
12.152,5388
12.1737,5417
12.1954,5497
12.2172,5614
12.2389,5720
12.2606,5676
12.2824,5634
12.3041,5496
12.3258,5539
12.3476,5761
12.3693,5671
12.391,5603
12.4128,5599
12.4345,5660
12.4562,5811
12.478,5705
12.4997,5723
12.5214,5701
12.5432,5509
12.5649,5752
12.5866,5807
12.6084,5792
12.6301,5657
12.6518,5811
12.6736,5853
12.6953,5979
12.717,5892
12.7388,5853
12.7605,5828
12.7822,5935
12.804,5814
12.8257,5959
12.8474,5994
12.8692,5985
12.8909,5848
12.9126,5833
12.9344,5948
12.9561,6196
12.9778,6064
12.9996,6168
13.0213,6154
13.043,6274
13.0648,6229
13.0865,6135
13.1082,6388
13.13,6411
13.1517,6425
13.1734,6501
13.1952,6547
13.2169,6712
13.2386,6544
13.2604,6702
13.2821,6713
13.3038,6698
13.3256,6843
13.3473,7056
13.369,7175
13.3907,7207
13.4125,7341
13.4342,7479
13.4559,7537
13.4777,7765
13.4994,8001
13.5211,7952
13.5429,8153
13.5646,8533
13.5863,8803
13.6081,8966
13.6298,9202
13.6515,9448
13.6733,10018
13.695,10177
13.7167,10799
13.7385,11039
13.7602,11382
13.7819,12233
13.8037,12427
13.8254,13297
13.8471,13775
13.8689,14166
13.8906,14548
13.9123,15578
13.9341,15989
13.9558,16013
13.9775,16784
13.9993,16791
14.021,16713
14.0427,16360
14.0645,15884
14.0862,15008
14.1079,13830
14.1297,12911
14.1514,11792
14.1731,10703
14.1949,9738
14.2166,8856
14.2383,8361
14.2601,7800
14.2818,7328
14.3035,6964
14.3253,6551
14.347,6365
14.3687,6078
14.3905,5654
14.4122,5593
14.4339,5411
14.4557,5186
14.4774,5030
14.4991,4946
14.5209,4906
14.5426,4628
14.5643,4557
14.5861,4518
14.6078,4451
14.6295,4289
14.6513,4384
14.673,4271
14.6947,4157
14.7165,4197
14.7382,4155
14.7599,4051
14.7817,3964
14.8034,3922
14.8251,4022
14.8469,3791
14.8686,3864
14.8903,3786
14.9121,3690
14.9338,3756
14.9555,3632
14.9773,3657
14.999,3694
15.0207,3546
15.0424,3493
15.0642,3471
15.0859,3516
15.1076,3436
15.1294,3554
15.1511,3405
15.1728,3265
15.1946,3391
15.2163,3234
15.238,3319
15.2598,3316
15.2815,3260
15.3032,3329
15.325,3150
15.3467,3211
15.3684,3230
15.3902,3188
15.4119,3266
15.4336,3110
15.4554,3173
15.4771,3143
15.4988,3100
15.5206,3061
15.5423,3136
15.564,3037
15.5858,3078
15.6075,3076
15.6292,3067
15.651,2971
15.6727,3022
15.6944,2990
15.7162,3031
15.7379,3078
15.7596,3073
15.7814,3010
15.8031,3005
15.8248,3000
15.8466,2862
15.8683,2893
15.89,2840
15.9118,2881
15.9335,2808
15.9552,2974
15.977,2894
15.9987,2842
16.0204,2837
16.0422,2817
16.0639,2801
16.0856,2817
16.1074,2843
16.1291,2914
16.1508,2882
16.1726,2827
16.1943,2784
16.216,2755
16.2378,2723
16.2595,2826
16.2812,2763
16.303,2791
16.3247,2724
16.3464,2826
16.3682,2702
16.3899,2733
16.4116,2736
16.4334,2760
16.4551,2769
16.4768,2708
16.4986,2695
16.5203,2639
16.542,2716
16.5638,2602
16.5855,2615
16.6072,2655
16.6289,2673
16.6507,2641
16.6724,2459
16.6941,2667
16.7159,2556
16.7376,2591
16.7593,2631
16.7811,2634
16.8028,2630
16.8245,2586
16.8463,2589
16.868,2696
16.8897,2764
16.9115,2624
16.9332,2542
16.9549,2521
16.9767,2529
16.9984,2644
17.0201,2652
17.0419,2587
17.0636,2698
17.0853,2497
17.1071,2584
17.1288,2548
17.1505,2475
17.1723,2501
17.194,2533
17.2157,2513
17.2375,2478
17.2592,2548
17.2809,2494
17.3027,2519
17.3244,2468
17.3461,2552
17.3679,2499
17.3896,2563
17.4113,2594
17.4331,2539
17.4548,2606
17.4765,2438
17.4983,2447
17.52,2429
17.5417,2524
17.5635,2546
17.5852,2397
17.6069,2447
17.6287,2529
17.6504,2387
17.6721,2408
17.6939,2481
17.7156,2447
17.7373,2449
17.7591,2452
17.7808,2426
17.8025,2412
17.8243,2438
17.846,2373
17.8677,2409
17.8895,2414
17.9112,2391
17.9329,2463
17.9547,2491
17.9764,2369
17.9981,2489
18.0199,2356
18.0416,2425
18.0633,2315
18.0851,2366
18.1068,2321
18.1285,2461
18.1503,2431
18.172,2418
18.1937,2458
18.2154,2410
18.2372,2395
18.2589,2343
18.2806,2457
18.3024,2305
18.3241,2374
18.3458,2423
18.3676,2307
18.3893,2282
18.411,2409
18.4328,2400
18.4545,2368
18.4762,2274
18.498,2275
18.5197,2399
18.5414,2344
18.5632,2427
18.5849,2439
18.6066,2476
18.6284,2419
18.6501,2350
18.6718,2344
18.6936,2312
18.7153,2342
18.737,2275
18.7588,2292
18.7805,2396
18.8022,2332
18.824,2432
18.8457,2319
18.8674,2353
18.8892,2392
18.9109,2368
18.9326,2288
18.9544,2354
18.9761,2302
18.9978,2290
19.0196,2337
19.0413,2283
19.063,2335
19.0848,2323
19.1065,2296
19.1282,2371
19.15,2325
19.1717,2390
19.1934,2343
19.2152,2350
19.2369,2358
19.2586,2358
19.2804,2384
19.3021,2326
19.3238,2330
19.3456,2322
19.3673,2334
19.389,2297
19.4108,2296
19.4325,2371
19.4542,2305
19.476,2349
19.4977,2333
19.5194,2422
19.5412,2310
19.5629,2421
19.5846,2351
19.6064,2386
19.6281,2409
19.6498,2447
19.6716,2407
19.6933,2227
19.715,2341
19.7368,2305
19.7585,2280
19.7802,2412
19.8019,2373
19.8237,2389
19.8454,2322
19.8671,2377
19.8889,2424
19.9106,2370
19.9323,2396
19.9541,2332
19.9758,2381
19.9975,2383
20.0193,2406
20.041,2354
20.0627,2294
20.0845,2502
20.1062,2446
20.1279,2431
20.1497,2435
20.1714,2443
20.1931,2484
20.2149,2468
20.2366,2463
20.2583,2417
20.2801,2611
20.3018,2486
20.3235,2558
20.3453,2504
20.367,2559
20.3887,2475
20.4105,2507
20.4322,2491
20.4539,2363
20.4757,2345
20.4974,2458
20.5191,2406
20.5409,2478
20.5626,2264
20.5843,2411
20.6061,2417
20.6278,2370
20.6495,2493
20.6713,2415
20.693,2334
20.7147,2314
20.7365,2349
20.7582,2282
20.7799,2324
20.8017,2292
20.8234,2336
20.8451,2362
20.8669,2336
20.8886,2333
20.9103,2344
20.9321,2376
20.9538,2389
20.9755,2449
20.9973,2415
21.019,2455
21.0407,2291
21.0625,2325
21.0842,2218
21.1059,2379
21.1277,2286
21.1494,2256
21.1711,2314
21.1929,2312
21.2146,2295
21.2363,2261
21.2581,2366
21.2798,2282
21.3015,2332
21.3233,2337
21.345,2385
21.3667,2265
21.3884,2369
21.4102,2451
21.4319,2288
21.4536,2263
21.4754,2291
21.4971,2302
21.5188,2231
21.5406,2306
21.5623,2286
21.584,2370
21.6058,2282
21.6275,2325
21.6492,2163
21.671,2196
21.6927,2367
21.7144,2299
21.7362,2337
21.7579,2326
21.7796,2224
21.8014,2330
21.8231,2273
21.8448,2264
21.8666,2350
21.8883,2245
21.91,2316
21.9318,2285
21.9535,2361
21.9752,2283
21.997,2324
22.0187,2341
22.0404,2362
22.0622,2335
22.0839,2342
22.1056,2386
22.1274,2348
22.1491,2355
22.1708,2328
22.1926,2335
22.2143,2488
22.236,2416
22.2578,2332
22.2795,2558
22.3012,2458
22.323,2497
22.3447,2596
22.3664,2546
22.3882,2606
22.4099,2598
22.4316,2682
22.4534,2709
22.4751,2711
22.4968,2745
22.5186,2891
22.5403,2841
22.562,2836
22.5838,2899
22.6055,2975
22.6272,3019
22.649,3041
22.6707,3127
22.6924,3237
22.7142,3333
22.7359,3267
22.7576,3387
22.7794,3311
22.8011,3394
22.8228,3379
22.8446,3413
22.8663,3246
22.888,3374
22.9098,3337
22.9315,3244
22.9532,3288
22.9749,3176
22.9967,3214
23.0184,3160
23.0401,3128
23.0619,3077
23.0836,3180
23.1053,3103
23.1271,3166
23.1488,3050
23.1705,3105
23.1923,3042
23.214,3161
23.2357,3050
23.2575,3179
23.2792,2965
23.3009,3081
23.3227,3082
23.3444,3124
23.3661,3068
23.3879,3004
23.4096,3099
23.4313,3173
23.4531,3129
23.4748,3014
23.4965,3046
23.5183,2971
23.54,2975
23.5617,2963
23.5835,2965
23.6052,2941
23.6269,3086
23.6487,2929
23.6704,2899
23.6921,2987
23.7139,2778
23.7356,2887
23.7573,3038
23.7791,2958
23.8008,3019
23.8225,3009
23.8443,2944
23.866,3026
23.8877,3065
23.9095,3100
23.9312,3129
23.9529,3135
23.9747,3052
23.9964,2985
24.0181,3013
24.0399,3024
24.0616,3036
24.0833,2936
24.1051,2996
24.1268,3014
24.1485,3010
24.1703,2906
24.192,2974
24.2137,2865
24.2355,3057
24.2572,2840
24.2789,2840
24.3007,2921
24.3224,2833
24.3441,2942
24.3659,3004
24.3876,2922
24.4093,2996
24.4311,2840
24.4528,2942
24.4745,2862
24.4963,2877
24.518,2839
24.5397,2812
24.5615,2958
24.5832,2949
24.6049,2928
24.6266,2906
24.6484,2831
24.6701,2891
24.6918,2842
24.7136,2969
24.7353,2876
24.757,2896
24.7788,2835
24.8005,2899
24.8222,2960
24.844,2867
24.8657,2902
24.8874,2874
24.9092,2868
24.9309,2858
24.9526,2826
24.9744,2794
24.9961,2891
25.0178,2834
25.0396,2782
25.0613,2825
25.083,2980
25.1048,2819
25.1265,2784
25.1482,2862
25.17,2799
25.1917,2835
25.2134,2827
25.2352,2800
25.2569,2724
25.2786,2785
25.3004,2891
25.3221,2831
25.3438,2878
25.3656,2795
25.3873,2828
25.409,2772
25.4308,2883
25.4525,2755
25.4742,2762
25.496,2820
25.5177,2892
25.5394,2885
25.5612,2772
25.5829,2819
25.6046,2849
25.6264,2891
25.6481,2841
25.6698,2787
25.6916,2868
25.7133,2885
25.735,2832
25.7568,2911
25.7785,2759
25.8002,2779
25.822,2866
25.8437,2860
25.8654,2987
25.8872,2973
25.9089,2896
25.9306,2855
25.9524,2837
25.9741,2779
25.9958,2881
26.0176,2911
26.0393,2816
26.061,2923
26.0828,2900
26.1045,2834
26.1262,2748
26.148,2907
26.1697,2853
26.1914,2785
26.2131,2867
26.2349,2928
26.2566,2805
26.2783,2895
26.3001,2907
26.3218,2926
26.3435,2813
26.3653,2994
26.387,2755
26.4087,2864
26.4305,2825
26.4522,2923
26.4739,2896
26.4957,2919
26.5174,2922
26.5391,2810
26.5609,2904
26.5826,2961
26.6043,2803
26.6261,2880
26.6478,2859
26.6695,2895
26.6913,2877
26.713,2821
26.7347,2961
26.7565,2953
26.7782,2864
26.7999,2898
26.8217,2936
26.8434,3007
26.8651,2875
26.8869,2861
26.9086,2926
26.9303,2927
26.9521,3021
26.9738,2996
26.9955,2936
27.0173,3041
27.039,2987
27.0607,3047
27.0825,2968
27.1042,3148
27.1259,3094
27.1477,3173
27.1694,3083
27.1911,2977
27.2129,3052
27.2346,3114
27.2563,3133
27.2781,3029
27.2998,3046
27.3215,3121
27.3433,3121
27.365,3096
27.3867,3121
27.4085,3120
27.4302,3242
27.4519,3168
27.4737,3135
27.4954,3254
27.5171,3265
27.5389,3336
27.5606,3171
27.5823,3318
27.6041,3321
27.6258,3410
27.6475,3380
27.6693,3389
27.691,3353
27.7127,3420
27.7345,3318
27.7562,3398
27.7779,3545
27.7996,3580
27.8214,3579
27.8431,3631
27.8648,3609
27.8866,3825
27.9083,3773
27.93,3747
27.9518,3806
27.9735,3918
27.9952,3990
28.017,3945
28.0387,4046
28.0604,4293
28.0822,4315
28.1039,4241
28.1256,4422
28.1474,4456
28.1691,4748
28.1908,4624
28.2126,4794
28.2343,4814
28.256,5037
28.2778,5261
28.2995,5373
28.3212,5620
28.343,5826
28.3647,6090
28.3864,6482
28.4082,6783
28.4299,6957
28.4516,7527
28.4734,8254
28.4951,8556
28.5168,9038
28.5386,10058
28.5603,10683
28.582,11264
28.6038,12045
28.6255,12532
28.6472,13210
28.669,13280
28.6907,13149
28.7124,12671
28.7342,12070
28.7559,11387
28.7776,10732
28.7994,9966
28.8211,9335
28.8428,8596
28.8646,8434
28.8863,7680
28.908,7582
28.9298,7139
28.9515,6978
28.9732,6788
28.995,6471
29.0167,6263
29.0384,6049
29.0602,6091
29.0819,5896
29.1036,5786
29.1254,5760
29.1471,5623
29.1688,5522
29.1906,5466
29.2123,5298
29.234,5346
29.2558,5241
29.2775,5073
29.2992,4958
29.321,4864
29.3427,4835
29.3644,4691
29.3861,4758
29.4079,4693
29.4296,4664
29.4513,4642
29.4731,4512
29.4948,4568
29.5165,4513
29.5383,4539
29.56,4417
29.5817,4384
29.6035,4322
29.6252,4322
29.6469,4250
29.6687,4254
29.6904,4277
29.7121,4173
29.7339,4119
29.7556,4147
29.7773,4134
29.7991,4139
29.8208,4200
29.8425,4071
29.8643,4062
29.886,4047
29.9077,3961
29.9295,3942
29.9512,4010
29.9729,3955
29.9947,4081