File: clay-plate-XRD-S2-2022/ENVT4461 S-01 Mg+Gly.csv
"Angle","Counts"
3.00243,27470
3.02417,27020
3.0459,26389
3.06763,25552
3.08936,24924
3.1111,24705
3.13283,24280
3.15456,23383
3.1763,23007
3.19803,22695
3.21976,21938
3.24149,21589
3.26323,20955
3.28496,20557
3.30669,20360
3.32843,19956
3.35016,19451
3.37189,19257
3.39363,18604
3.41536,18494
3.43709,18136
3.45882,17614
3.48056,17376
3.50229,16887
3.52402,16637
3.54576,16324
3.56749,16143
3.58922,15520
3.61095,15123
3.63269,14920
3.65442,14794
3.67615,14685
3.69789,14277
3.71962,13889
3.74135,13866
3.76308,13557
3.78482,12867
3.80655,12923
3.82828,12668
3.85002,12322
3.87175,12098
3.89348,11883
3.91521,11565
3.93695,11415
3.95868,11280
3.98041,10902
4.00215,10676
4.02388,10742
4.04561,10375
4.06734,10319
4.08908,10021
4.11081,9743
4.13254,9748
4.15428,9416
4.17601,9186
4.19774,9111
4.21947,9037
4.24121,8907
4.26294,8393
4.28467,8503
4.30641,8098
4.32814,8255
4.34987,8041
4.3716,7762
4.39334,7756
4.41507,7702
4.4368,7425
4.45854,7196
4.48027,7237
4.502,6968
4.52373,6858
4.54547,6708
4.5672,6697
4.58893,6409
4.61067,6434
4.6324,6376
4.65413,6045
4.67586,6151
4.6976,6044
4.71933,5836
4.74106,5560
4.7628,5585
4.78453,5629
4.80626,5331
4.828,5365
4.84973,5177
4.87146,5064
4.89319,5094
4.91493,5067
4.93666,5067
4.95839,4957
4.98013,4785
5.00186,4526
5.02359,4673
5.04532,4749
5.06706,4457
5.08879,4499
5.11052,4563
5.13226,4284
5.15399,4289
5.17572,4078
5.19745,4168
5.21919,4079
5.24092,4016
5.26265,4004
5.28439,3857
5.30612,3765
5.32785,3752
5.34958,3780
5.37132,3797
5.39305,3727
5.41478,3695
5.43652,3616
5.45825,3473
5.47998,3382
5.50171,3546
5.52345,3438
5.54518,3391
5.56691,3328
5.58865,3326
5.61038,3220
5.63211,3278
5.65384,3244
5.67558,3201
5.69731,3210
5.71904,3035
5.74078,3083
5.76251,3169
5.78424,3013
5.80597,3083
5.82771,3065
5.84944,2951
5.87117,2913
5.89291,2992
5.91464,2996
5.93637,2917
5.9581,3009
5.97984,2953
6.00157,2976
6.0233,2856
6.04504,2902
6.06677,2915
6.0885,2876
6.11024,2868
6.13197,2946
6.1537,2842
6.17543,2896
6.19717,2915
6.2189,2983
6.24063,2821
6.26237,2873
6.2841,2940
6.30583,2839
6.32756,2821
6.3493,2908
6.37103,2782
6.39276,2919
6.4145,2927
6.43623,2846
6.45796,2842
6.47969,2792
6.50143,2928
6.52316,2800
6.54489,2729
6.56663,2823
6.58836,2771
6.61009,2771
6.63182,2832
6.65356,2691
6.67529,2804
6.69702,2838
6.71876,2747
6.74049,2790
6.76222,2821
6.78395,2807
6.80569,2837
6.82742,2725
6.84915,2792
6.87089,2786
6.89262,2897
6.91435,2793
6.93608,2792
6.95782,2798
6.97955,2831
7.00128,2795
7.02302,2845
7.04475,2704
7.06648,2842
7.08821,2816
7.10995,2651
7.13168,2717
7.15341,2737
7.17515,2747
7.19688,2804
7.21861,2666
7.24034,2719
7.26208,2679
7.28381,2730
7.30554,2747
7.32728,2648
7.34901,2727
7.37074,2776
7.39247,2745
7.41421,2664
7.43594,2590
7.45767,2685
7.47941,2608
7.50114,2643
7.52287,2655
7.54461,2523
7.56634,2713
7.58807,2648
7.6098,2657
7.63154,2626
7.65327,2561
7.675,2603
7.69674,2597
7.71847,2557
7.7402,2620
7.76193,2603
7.78367,2635
7.8054,2591
7.82713,2614
7.84887,2648
7.8706,2533
7.89233,2515
7.91406,2636
7.9358,2564
7.95753,2586
7.97926,2549
8.001,2619
8.02273,2498
8.04446,2586
8.06619,2552
8.08793,2531
8.10966,2486
8.13139,2552
8.15313,2501
8.17486,2501
8.19659,2589
8.21832,2568
8.24006,2492
8.26179,2482
8.28352,2558
8.30526,2560
8.32699,2522
8.34872,2579
8.37045,2525
8.39219,2514
8.41392,2536
8.43565,2525
8.45739,2614
8.47912,2598
8.50085,2482
8.52258,2614
8.54432,2604
8.56605,2585
8.58778,2541
8.60952,2518
8.63125,2426
8.65298,2523
8.67471,2540
8.69645,2437
8.71818,2544
8.73991,2450
8.76165,2523
8.78338,2488
8.80511,2432
8.82685,2671
8.84858,2459
8.87031,2637
8.89204,2560
8.91378,2603
8.93551,2519
8.95724,2562
8.97898,2610
9.00071,2431
9.02244,2576
9.04417,2509
9.06591,2587
9.08764,2636
9.10937,2635
9.13111,2546
9.15284,2613
9.17457,2574
9.1963,2678
9.21804,2558
9.23977,2565
9.2615,2563
9.28324,2586
9.30497,2580
9.3267,2604
9.34843,2542
9.37017,2580
9.3919,2603
9.41363,2715
9.43537,2692
9.4571,2695
9.47883,2595
9.50056,2607
9.5223,2603
9.54403,2727
9.56576,2650
9.5875,2603
9.60923,2607
9.63096,2749
9.65269,2671
9.67443,2762
9.69616,2614
9.71789,2817
9.73963,2732
9.76136,2773
9.78309,2763
9.80482,2749
9.82656,2866
9.84829,2790
9.87002,2813
9.89176,2761
9.91349,2879
9.93522,2839
9.95695,2692
9.97869,2784
10.0004,2623
10.0222,2712
10.0439,2680
10.0656,2754
10.0874,2714
10.1091,2718
10.1308,2675
10.1526,2647
10.1743,2599
10.196,2722
10.2177,2625
10.2395,2643
10.2612,2693
10.2829,2763
10.3047,2621
10.3264,2658
10.3481,2662
10.3699,2591
10.3916,2588
10.4133,2708
10.4351,2656
10.4568,2660
10.4785,2536
10.5003,2700
10.522,2640
10.5437,2729
10.5655,2624
10.5872,2602
10.6089,2737
10.6307,2615
10.6524,2562
10.6741,2648
10.6959,2699
10.7176,2726
10.7393,2659
10.7611,2691
10.7828,2710
10.8045,2652
10.8263,2782
10.848,2621
10.8697,2731
10.8915,2765
10.9132,2757
10.9349,2753
10.9567,2845
10.9784,2791
11.0001,2769
11.0219,2867
11.0436,2924
11.0653,2862
11.0871,2880
11.1088,2854
11.1305,3000
11.1523,2962
11.174,3059
11.1957,3112
11.2175,3186
11.2392,3378
11.2609,3330
11.2827,3413
11.3044,3464
11.3261,3592
11.3479,3719
11.3696,3780
11.3913,3620
11.4131,3454
11.4348,3206
11.4565,3041
11.4783,2857
11.5,2927
11.5217,2737
11.5435,2808
11.5652,2902
11.5869,2768
11.6087,2859
11.6304,2861
11.6521,2831
11.6739,2910
11.6956,2835
11.7173,2802
11.7391,2769
11.7608,2734
11.7825,2790
11.8042,2784
11.826,2898
11.8477,2724
11.8694,2801
11.8912,2762
11.9129,2716
11.9346,2743
11.9564,2793
11.9781,2850
11.9998,2796
12.0216,2765
12.0433,2845
12.065,2763
12.0868,2851
12.1085,2851
12.1302,2790
12.152,2814
12.1737,2777
12.1954,2754
12.2172,2774
12.2389,2748
12.2606,2753
12.2824,2840
12.3041,2937
12.3258,2823
12.3476,2788
12.3693,2842
12.391,2933
12.4128,2858
12.4345,2887
12.4562,2890
12.478,3021
12.4997,2938
12.5214,2981
12.5432,2901
12.5649,2902
12.5866,2940
12.6084,2833
12.6301,3004
12.6518,3008
12.6736,2927
12.6953,2924
12.717,2909
12.7388,3038
12.7605,2992
12.7822,2870
12.804,3019
12.8257,2889
12.8474,2970
12.8692,2925
12.8909,2943
12.9126,3030
12.9344,3061
12.9561,3130
12.9778,2997
12.9996,3152
13.0213,3122
13.043,3069
13.0648,3226
13.0865,3100
13.1082,3144
13.13,3125
13.1517,3216
13.1734,3267
13.1952,3251
13.2169,3300
13.2386,3319
13.2604,3377
13.2821,3367
13.3038,3426
13.3256,3497
13.3473,3514
13.369,3525
13.3907,3541
13.4125,3737
13.4342,3583
13.4559,3674
13.4777,3796
13.4994,3723
13.5211,3881
13.5429,3845
13.5646,3869
13.5863,3922
13.6081,4144
13.6298,4117
13.6515,4148
13.6733,4352
13.695,4496
13.7167,4510
13.7385,4740
13.7602,4777
13.7819,4899
13.8037,5027
13.8254,5205
13.8471,5114
13.8689,5319
13.8906,5584
13.9123,5637
13.9341,5549
13.9558,5491
13.9775,5547
13.9993,5409
14.021,5209
14.0427,5012
14.0645,4659
14.0862,4449
14.1079,4180
14.1297,3957
14.1514,3761
14.1731,3829
14.1949,3493
14.2166,3317
14.2383,3361
14.2601,3286
14.2818,3196
14.3035,3127
14.3253,3092
14.347,3073
14.3687,3038
14.3905,2945
14.4122,2930
14.4339,2896
14.4557,2946
14.4774,2936
14.4991,2856
14.5209,2804
14.5426,2774
14.5643,2756
14.5861,2690
14.6078,2715
14.6295,2819
14.6513,2816
14.673,2656
14.6947,2622
14.7165,2682
14.7382,2680
14.7599,2582
14.7817,2519
14.8034,2711
14.8251,2591
14.8469,2627
14.8686,2616
14.8903,2548
14.9121,2493
14.9338,2618
14.9555,2540
14.9773,2483
14.999,2516
15.0207,2618
15.0424,2621
15.0642,2456
15.0859,2526
15.1076,2485
15.1294,2426
15.1511,2499
15.1728,2441
15.1946,2573
15.2163,2459
15.238,2515
15.2598,2534
15.2815,2541
15.3032,2545
15.325,2478
15.3467,2543
15.3684,2421
15.3902,2510
15.4119,2484
15.4336,2413
15.4554,2524
15.4771,2500
15.4988,2487
15.5206,2444
15.5423,2473
15.564,2559
15.5858,2566
15.6075,2598
15.6292,2643
15.651,2646
15.6727,2604
15.6944,2705
15.7162,2619
15.7379,2656
15.7596,2726
15.7814,2795
15.8031,3003
15.8248,2926
15.8466,3021
15.8683,3233
15.89,3309
15.9118,3470
15.9335,3558
15.9552,3794
15.977,3952
15.9987,4287
16.0204,4884
16.0422,5426
16.0639,6160
16.0856,7058
16.1074,7871
16.1291,9185
16.1508,10492
16.1726,11937
16.1943,13615
16.216,15172
16.2378,16730
16.2595,18333
16.2812,16753
16.303,13643
16.3247,9882
16.3464,6732
16.3682,4856
16.3899,3872
16.4116,3335
16.4334,3199
16.4551,2864
16.4768,2941
16.4986,2896
16.5203,2781
16.542,2768
16.5638,2699
16.5855,2650
16.6072,2777
16.6289,2721
16.6507,2757
16.6724,2758
16.6941,2872
16.7159,2819
16.7376,2881
16.7593,2983
16.7811,3037
16.8028,3004
16.8245,3131
16.8463,3189
16.868,3199
16.8897,3023
16.9115,2943
16.9332,2751
16.9549,2625
16.9767,2542
16.9984,2493
17.0201,2543
17.0419,2346
17.0636,2477
17.0853,2280
17.1071,2223
17.1288,2305
17.1505,2340
17.1723,2230
17.194,2250
17.2157,2181
17.2375,2155
17.2592,2278
17.2809,2211
17.3027,2207
17.3244,2207
17.3461,2218
17.3679,2256
17.3896,2094
17.4113,2203
17.4331,2205
17.4548,2181
17.4765,2176
17.4983,2205
17.52,2257
17.5417,2086
17.5635,2122
17.5852,2181
17.6069,2137
17.6287,2221
17.6504,2090
17.6721,2173
17.6939,2147
17.7156,2079
17.7373,2185
17.7591,2070
17.7808,2135
17.8025,2153
17.8243,2112
17.846,2047
17.8677,2091
17.8895,2036
17.9112,2141
17.9329,2065
17.9547,2096
17.9764,2092
17.9981,2155
18.0199,2088
18.0416,2118
18.0633,2159
18.0851,2103
18.1068,2148
18.1285,2123
18.1503,2078
18.172,2089
18.1937,2088
18.2154,2026
18.2372,2139
18.2589,2055
18.2806,2051
18.3024,2016
18.3241,1956
18.3458,2071
18.3676,2078
18.3893,2060
18.411,2016
18.4328,2066
18.4545,1966
18.4762,2083
18.498,2171
18.5197,2096
18.5414,2118
18.5632,2099
18.5849,2077
18.6066,2103
18.6284,2074
18.6501,2142
18.6718,2130
18.6936,2139
18.7153,2082
18.737,2082
18.7588,2147
18.7805,2101
18.8022,2056
18.824,2011
18.8457,2012
18.8674,2008
18.8892,1946
18.9109,2064
18.9326,2034
18.9544,2026
18.9761,2057
18.9978,2084
19.0196,2060
19.0413,2040
19.063,2075
19.0848,2018
19.1065,2072
19.1282,1989
19.15,2021
19.1717,2044
19.1934,1999
19.2152,2051
19.2369,1996
19.2586,2028
19.2804,1997
19.3021,2049
19.3238,2043
19.3456,1926
19.3673,1925
19.389,1955
19.4108,2031
19.4325,1982
19.4542,1962
19.476,1984
19.4977,2075
19.5194,1929
19.5412,1915
19.5629,1994
19.5846,1896
19.6064,1900
19.6281,1932
19.6498,2040
19.6716,1948
19.6933,2027
19.715,1937
19.7368,1956
19.7585,1925
19.7802,1957
19.8019,1946
19.8237,1992
19.8454,1957
19.8671,1976
19.8889,2013
19.9106,1951
19.9323,1991
19.9541,2033
19.9758,1957
19.9975,2019
20.0193,2045
20.041,2043
20.0627,1942
20.0845,2005
20.1062,1891
20.1279,1970
20.1497,2029
20.1714,2089
20.1931,1953
20.2149,1989
20.2366,1969
20.2583,1970
20.2801,1975
20.3018,2001
20.3235,2051
20.3453,2110
20.367,1959
20.3887,2018
20.4105,2003
20.4322,1969
20.4539,1909
20.4757,2074
20.4974,2046
20.5191,2075
20.5409,2007
20.5626,2026
20.5843,1964
20.6061,2025
20.6278,2066
20.6495,2004
20.6713,2096
20.693,2037
20.7147,2087
20.7365,2118
20.7582,2130
20.7799,2116
20.8017,2121
20.8234,2158
20.8451,2152
20.8669,2264
20.8886,2258
20.9103,2238
20.9321,2264
20.9538,2238
20.9755,2098
20.9973,2141
21.019,2109
21.0407,2082
21.0625,2112
21.0842,1995
21.1059,2079
21.1277,2047
21.1494,2004
21.1711,2034
21.1929,2022
21.2146,2001
21.2363,2017
21.2581,2032
21.2798,1987
21.3015,1959
21.3233,1961
21.345,1975
21.3667,1980
21.3884,2025
21.4102,2013
21.4319,2061
21.4536,2043
21.4754,1933
21.4971,2048
21.5188,1965
21.5406,2035
21.5623,1987
21.584,2096
21.6058,1971
21.6275,2061
21.6492,2012
21.671,2065
21.6927,1990
21.7144,2049
21.7362,2022
21.7579,1989
21.7796,1973
21.8014,1883
21.8231,1958
21.8448,1881
21.8666,1935
21.8883,1948
21.91,1971
21.9318,1924
21.9535,1969
21.9752,2016
21.997,2003
22.0187,1979
22.0404,1916
22.0622,1948
22.0839,2024
22.1056,2004
22.1274,1989
22.1491,2039
22.1708,1998
22.1926,1935
22.2143,2007
22.236,1986
22.2578,2009
22.2795,1958
22.3012,1905
22.323,1959
22.3447,1950
22.3664,2118
22.3882,2100
22.4099,2079
22.4316,2131
22.4534,2310
22.4751,2229
22.4968,2242
22.5186,2176
22.5403,2290
22.562,2323
22.5838,2431
22.6055,2520
22.6272,2420
22.649,2555
22.6707,2572
22.6924,2648
22.7142,2725
22.7359,2721
22.7576,2829
22.7794,2833
22.8011,2998
22.8228,3194
22.8446,3293
22.8663,3570
22.888,3763
22.9098,3991
22.9315,4300
22.9532,4591
22.9749,4817
22.9967,4754
23.0184,4290
23.0401,3784
23.0619,3319
23.0836,2975
23.1053,2735
23.1271,2808
23.1488,2714
23.1705,2737
23.1923,2693
23.214,2779
23.2357,2616
23.2575,2693
23.2792,2748
23.3009,2620
23.3227,2549
23.3444,2536
23.3661,2474
23.3879,2521
23.4096,2496
23.4313,2526
23.4531,2562
23.4748,2581
23.4965,2626
23.5183,2645
23.54,2676
23.5617,2614
23.5835,2622
23.6052,2753
23.6269,2824
23.6487,2969
23.6704,2982
23.6921,3177
23.7139,3308
23.7356,3463
23.7573,3913
23.7791,4172
23.8008,4413
23.8225,4842
23.8443,5096
23.866,5334
23.8877,5293
23.9095,4877
23.9312,4175
23.9529,3727
23.9747,3197
23.9964,2864
24.0181,2679
24.0399,2607
24.0616,2576
24.0833,2485
24.1051,2502
24.1268,2497
24.1485,2391
24.1703,2449
24.192,2483
24.2137,2423
24.2355,2442
24.2572,2432
24.2789,2544
24.3007,2404
24.3224,2452
24.3441,2485
24.3659,2417
24.3876,2539
24.4093,2497
24.4311,2625
24.4528,2552
24.4745,2494
24.4963,2418
24.518,2564
24.5397,2522
24.5615,2592
24.5832,2535
24.6049,2684
24.6266,2551
24.6484,2681
24.6701,2690
24.6918,2569
24.7136,2593
24.7353,2702
24.757,2760
24.7788,2815
24.8005,2912
24.8222,2970
24.844,3111
24.8657,3201
24.8874,3302
24.9092,3268
24.9309,3551
24.9526,3647
24.9744,3856
24.9961,4019
25.0178,4185
25.0396,4310
25.0613,4534
25.083,4576
25.1048,4644
25.1265,4777
25.1482,4786
25.17,4710
25.1917,4651
25.2134,4535
25.2352,4270
25.2569,3884
25.2786,3621
25.3004,3368
25.3221,3109
25.3438,2897
25.3656,2855
25.3873,2702
25.409,2683
25.4308,2592
25.4525,2582
25.4742,2454
25.496,2408
25.5177,2468
25.5394,2363
25.5612,2352
25.5829,2333
25.6046,2333
25.6264,2323
25.6481,2211
25.6698,2245
25.6916,2335
25.7133,2309
25.735,2287
25.7568,2283
25.7785,2293
25.8002,2347
25.822,2342
25.8437,2308
25.8654,2390
25.8872,2420
25.9089,2564
25.9306,2585
25.9524,2703
25.9741,2835
25.9958,3080
26.0176,3449
26.0393,3584
26.061,3832
26.0828,3895
26.1045,3700
26.1262,3335
26.148,3086
26.1697,2734
26.1914,2439
26.2131,2364
26.2349,2266
26.2566,2162
26.2783,2141
26.3001,2128
26.3218,2083
26.3435,2157
26.3653,2164
26.387,2040
26.4087,2103
26.4305,2004
26.4522,2127
26.4739,2079
26.4957,2091
26.5174,2048
26.5391,2024
26.5609,2019
26.5826,2085
26.6043,2157
26.6261,2158
26.6478,2050
26.6695,2130
26.6913,2121
26.713,2098
26.7347,2126
26.7565,2190
26.7782,2101
26.7999,2189
26.8217,2071
26.8434,2149
26.8651,2182
26.8869,2144
26.9086,2204
26.9303,2164
26.9521,2247
26.9738,2248
26.9955,2339
27.0173,2384
27.039,2460
27.0607,2481
27.0825,2434
27.1042,2385
27.1259,2314
27.1477,2302
27.1694,2289
27.1911,2260
27.2129,2253
27.2346,2275
27.2563,2180
27.2781,2261
27.2998,2284
27.3215,2251
27.3433,2202
27.365,2279
27.3867,2303
27.4085,2250
27.4302,2328
27.4519,2344
27.4737,2395
27.4954,2368
27.5171,2452
27.5389,2475
27.5606,2474
27.5823,2506
27.6041,2603
27.6258,2507
27.6475,2534
27.6693,2448
27.691,2502
27.7127,2542
27.7345,2629
27.7562,2554
27.7779,2702
27.7996,2571
27.8214,2544
27.8431,2545
27.8648,2517
27.8866,2423
27.9083,2395
27.93,2392
27.9518,2566
27.9735,2529
27.9952,2547
28.017,2517
28.0387,2549
28.0604,2504
28.0822,2454
28.1039,2530
28.1256,2588
28.1474,2554
28.1691,2512
28.1908,2535
28.2126,2582
28.2343,2535
28.256,2606
28.2778,2598
28.2995,2679
28.3212,2670
28.343,2773
28.3647,2807
28.3864,2792
28.4082,2951
28.4299,3027
28.4516,3106
28.4734,3235
28.4951,3253
28.5168,3331
28.5386,3341
28.5603,3376
28.582,3481
28.6038,3564
28.6255,3502
28.6472,3454
28.669,3360
28.6907,3217
28.7124,3140
28.7342,3029
28.7559,2952
28.7776,2868
28.7994,2702
28.8211,2686
28.8428,2587
28.8646,2585
28.8863,2594
28.908,2585
28.9298,2491
28.9515,2496
28.9732,2477
28.995,2478
29.0167,2419
29.0384,2419
29.0602,2427
29.0819,2381
29.1036,2411
29.1254,2408
29.1471,2282
29.1688,2298
29.1906,2239
29.2123,2192
29.234,2144
29.2558,2188
29.2775,2117
29.2992,2239
29.321,2180
29.3427,2170
29.3644,2187
29.3861,2109
29.4079,2112
29.4296,2106
29.4513,2161
29.4731,2202
29.4948,2181
29.5165,2205
29.5383,2239
29.56,2160
29.5817,2255
29.6035,2347
29.6252,2173
29.6469,2139
29.6687,2227
29.6904,2274
29.7121,2144
29.7339,2238
29.7556,2066
29.7773,2089
29.7991,2139
29.8208,2047
29.8425,2077
29.8643,2159
29.886,2188
29.9077,2127
29.9295,2155
29.9512,2138
29.9729,2211
29.9947,2139