File: clay-plate-XRD-S2-2022/ENVT4461 S-13 Mg EY.csv
"Angle","Counts"
3.00243,25220
3.02417,24820
3.0459,24501
3.06763,23909
3.08936,23500
3.1111,22672
3.13283,22565
3.15456,22059
3.1763,21802
3.19803,21028
3.21976,20693
3.24149,20498
3.26323,19996
3.28496,19728
3.30669,19418
3.32843,18834
3.35016,18700
3.37189,18292
3.39363,18010
3.41536,17782
3.43709,17398
3.45882,16906
3.48056,16694
3.50229,16486
3.52402,16377
3.54576,15813
3.56749,15916
3.58922,15622
3.61095,15056
3.63269,15010
3.65442,14689
3.67615,14597
3.69789,14544
3.71962,14126
3.74135,13726
3.76308,13497
3.78482,13594
3.80655,13127
3.82828,13025
3.85002,12869
3.87175,12638
3.89348,12649
3.91521,12210
3.93695,12020
3.95868,11800
3.98041,11740
4.00215,11674
4.02388,11619
4.04561,11280
4.06734,11233
4.08908,11132
4.11081,10861
4.13254,10835
4.15428,10717
4.17601,10641
4.19774,10403
4.21947,10316
4.24121,10258
4.26294,10023
4.28467,10253
4.30641,9887
4.32814,9767
4.34987,9583
4.3716,9601
4.39334,9535
4.41507,9279
4.4368,9404
4.45854,9298
4.48027,9288
4.502,9174
4.52373,8863
4.54547,8779
4.5672,8786
4.58893,8618
4.61067,8633
4.6324,8508
4.65413,8595
4.67586,8464
4.6976,8493
4.71933,8349
4.74106,8230
4.7628,8225
4.78453,8274
4.80626,8220
4.828,8250
4.84973,8064
4.87146,8030
4.89319,8097
4.91493,7792
4.93666,7862
4.95839,7776
4.98013,7807
5.00186,7763
5.02359,7817
5.04532,7877
5.06706,7683
5.08879,7802
5.11052,7645
5.13226,7748
5.15399,7674
5.17572,7684
5.19745,7492
5.21919,7549
5.24092,7525
5.26265,7436
5.28439,7549
5.30612,7613
5.32785,7337
5.34958,7475
5.37132,7508
5.39305,7502
5.41478,7544
5.43652,7560
5.45825,7394
5.47998,7501
5.50171,7475
5.52345,7454
5.54518,7406
5.56691,7469
5.58865,7452
5.61038,7431
5.63211,7521
5.65384,7439
5.67558,7466
5.69731,7502
5.71904,7374
5.74078,7375
5.76251,7360
5.78424,7434
5.80597,7409
5.82771,7316
5.84944,7667
5.87117,7558
5.89291,7474
5.91464,7672
5.93637,7596
5.9581,7591
5.97984,7570
6.00157,7669
6.0233,7622
6.04504,7518
6.06677,7587
6.0885,7536
6.11024,7618
6.13197,7574
6.1537,7793
6.17543,7655
6.19717,7688
6.2189,7615
6.24063,7733
6.26237,7642
6.2841,7842
6.30583,7771
6.32756,7577
6.3493,7707
6.37103,7702
6.39276,7673
6.4145,7751
6.43623,7747
6.45796,7901
6.47969,7699
6.50143,7650
6.52316,7791
6.54489,7805
6.56663,7685
6.58836,7748
6.61009,7737
6.63182,7657
6.65356,7817
6.67529,7602
6.69702,7691
6.71876,7775
6.74049,7679
6.76222,7754
6.78395,7794
6.80569,7709
6.82742,7723
6.84915,7514
6.87089,7556
6.89262,7540
6.91435,7544
6.93608,7429
6.95782,7619
6.97955,7606
7.00128,7445
7.02302,7608
7.04475,7333
7.06648,7364
7.08821,7458
7.10995,7411
7.13168,7394
7.15341,7426
7.17515,7435
7.19688,7159
7.21861,7147
7.24034,7268
7.26208,7148
7.28381,7135
7.30554,7219
7.32728,7156
7.34901,7077
7.37074,7120
7.39247,7096
7.41421,7029
7.43594,7081
7.45767,7028
7.47941,7080
7.50114,6972
7.52287,7011
7.54461,6941
7.56634,6865
7.58807,6961
7.6098,6855
7.63154,6828
7.65327,6548
7.675,6887
7.69674,6890
7.71847,6777
7.7402,6743
7.76193,6592
7.78367,6816
7.8054,6577
7.82713,6621
7.84887,6536
7.8706,6614
7.89233,6607
7.91406,6559
7.9358,6432
7.95753,6576
7.97926,6446
8.001,6532
8.02273,6364
8.04446,6214
8.06619,6363
8.08793,6478
8.10966,6331
8.13139,6294
8.15313,6335
8.17486,6363
8.19659,6406
8.21832,6249
8.24006,6196
8.26179,6205
8.28352,6343
8.30526,6190
8.32699,6329
8.34872,6239
8.37045,6121
8.39219,6055
8.41392,6225
8.43565,6052
8.45739,6049
8.47912,5995
8.50085,6056
8.52258,6116
8.54432,6038
8.56605,6106
8.58778,6054
8.60952,6085
8.63125,6094
8.65298,6008
8.67471,5946
8.69645,5937
8.71818,5939
8.73991,5900
8.76165,5919
8.78338,5822
8.80511,5977
8.82685,5943
8.84858,5848
8.87031,5799
8.89204,5971
8.91378,5790
8.93551,5936
8.95724,5974
8.97898,5923
9.00071,5785
9.02244,5901
9.04417,5788
9.06591,5871
9.08764,5733
9.10937,5879
9.13111,5979
9.15284,6017
9.17457,5881
9.1963,5665
9.21804,5825
9.23977,5932
9.2615,5895
9.28324,5899
9.30497,5871
9.3267,5787
9.34843,5865
9.37017,5915
9.3919,5839
9.41363,5815
9.43537,5770
9.4571,5953
9.47883,5879
9.50056,5997
9.5223,5979
9.54403,5965
9.56576,5918
9.5875,6193
9.60923,6158
9.63096,6057
9.65269,6085
9.67443,6119
9.69616,6318
9.71789,6415
9.73963,6374
9.76136,6245
9.78309,6216
9.80482,6375
9.82656,6450
9.84829,6344
9.87002,6398
9.89176,6507
9.91349,6465
9.93522,6254
9.95695,6314
9.97869,6236
10.0004,6122
10.0222,6001
10.0439,5817
10.0656,5979
10.0874,5714
10.1091,5640
10.1308,5696
10.1526,5533
10.1743,5588
10.196,5594
10.2177,5592
10.2395,5657
10.2612,5439
10.2829,5403
10.3047,5439
10.3264,5576
10.3481,5523
10.3699,5342
10.3916,5345
10.4133,5261
10.4351,5376
10.4568,5269
10.4785,5269
10.5003,5312
10.522,5202
10.5437,5321
10.5655,5309
10.5872,5271
10.6089,5282
10.6307,5397
10.6524,5198
10.6741,5289
10.6959,5261
10.7176,5268
10.7393,5314
10.7611,5107
10.7828,5150
10.8045,5150
10.8263,5099
10.848,5085
10.8697,5085
10.8915,5312
10.9132,5136
10.9349,5217
10.9567,5163
10.9784,5120
11.0001,5129
11.0219,5152
11.0436,5017
11.0653,5083
11.0871,5114
11.1088,5217
11.1305,5157
11.1523,5077
11.174,4948
11.1957,4951
11.2175,5180
11.2392,5048
11.2609,5076
11.2827,5219
11.3044,5173
11.3261,5111
11.3479,5095
11.3696,5169
11.3913,5125
11.4131,5013
11.4348,5139
11.4565,5152
11.4783,5209
11.5,5061
11.5217,5019
11.5435,5232
11.5652,5014
11.5869,5059
11.6087,5175
11.6304,5184
11.6521,5202
11.6739,5076
11.6956,5162
11.7173,5153
11.7391,5261
11.7608,5183
11.7825,5137
11.8042,5120
11.826,5136
11.8477,5270
11.8694,5091
11.8912,5287
11.9129,5272
11.9346,5214
11.9564,5152
11.9781,5285
11.9998,5366
12.0216,5315
12.0433,5279
12.065,5259
12.0868,5337
12.1085,5278
12.1302,5298
12.152,5352
12.1737,5511
12.1954,5556
12.2172,5298
12.2389,5374
12.2606,5534
12.2824,5285
12.3041,5535
12.3258,5497
12.3476,5496
12.3693,5548
12.391,5567
12.4128,5638
12.4345,5594
12.4562,5628
12.478,5617
12.4997,5714
12.5214,5660
12.5432,5698
12.5649,5820
12.5866,5846
12.6084,5776
12.6301,5779
12.6518,5856
12.6736,5977
12.6953,5934
12.717,5848
12.7388,6082
12.7605,6118
12.7822,6023
12.804,6085
12.8257,6116
12.8474,6212
12.8692,6311
12.8909,6157
12.9126,6395
12.9344,6394
12.9561,6422
12.9778,6414
12.9996,6508
13.0213,6536
13.043,6663
13.0648,6759
13.0865,6755
13.1082,6833
13.13,7067
13.1517,7018
13.1734,7061
13.1952,7185
13.2169,7406
13.2386,7420
13.2604,7623
13.2821,7703
13.3038,7923
13.3256,7961
13.3473,8440
13.369,8399
13.3907,8593
13.4125,8838
13.4342,9142
13.4559,9465
13.4777,9708
13.4994,9965
13.5211,10458
13.5429,10910
13.5646,11083
13.5863,11846
13.6081,12359
13.6298,13079
13.6515,13618
13.6733,14116
13.695,14883
13.7167,15658
13.7385,16548
13.7602,17642
13.7819,18329
13.8037,19686
13.8254,20259
13.8471,22011
13.8689,22677
13.8906,23667
13.9123,24723
13.9341,25452
13.9558,25802
13.9775,26018
13.9993,25552
14.021,24496
14.0427,23747
14.0645,21226
14.0862,18843
14.1079,16855
14.1297,15059
14.1514,13479
14.1731,12396
14.1949,11078
14.2166,10094
14.2383,9502
14.2601,8852
14.2818,8228
14.3035,7846
14.3253,7251
14.347,7180
14.3687,6710
14.3905,6511
14.4122,6342
14.4339,6040
14.4557,5694
14.4774,5597
14.4991,5252
14.5209,5295
14.5426,5119
14.5643,5039
14.5861,4915
14.6078,4818
14.6295,4757
14.6513,4572
14.673,4668
14.6947,4505
14.7165,4381
14.7382,4241
14.7599,4268
14.7817,4304
14.8034,4196
14.8251,4181
14.8469,4025
14.8686,3932
14.8903,4000
14.9121,4006
14.9338,4012
14.9555,3827
14.9773,3891
14.999,3871
15.0207,3843
15.0424,3676
15.0642,3657
15.0859,3706
15.1076,3638
15.1294,3490
15.1511,3576
15.1728,3461
15.1946,3528
15.2163,3477
15.238,3547
15.2598,3453
15.2815,3553
15.3032,3337
15.325,3385
15.3467,3401
15.3684,3274
15.3902,3277
15.4119,3284
15.4336,3159
15.4554,3290
15.4771,3362
15.4988,3278
15.5206,3223
15.5423,3199
15.564,3230
15.5858,3228
15.6075,3170
15.6292,3234
15.651,3120
15.6727,3193
15.6944,3103
15.7162,3070
15.7379,3093
15.7596,3058
15.7814,3098
15.8031,3134
15.8248,3048
15.8466,2956
15.8683,3019
15.89,3058
15.9118,3045
15.9335,3009
15.9552,3016
15.977,3047
15.9987,3051
16.0204,2919
16.0422,3031
16.0639,2902
16.0856,2962
16.1074,2986
16.1291,2853
16.1508,2859
16.1726,2827
16.1943,2855
16.216,2844
16.2378,2900
16.2595,2751
16.2812,2859
16.303,2933
16.3247,2875
16.3464,2777
16.3682,2909
16.3899,2909
16.4116,2933
16.4334,2846
16.4551,2792
16.4768,2730
16.4986,2722
16.5203,2786
16.542,2795
16.5638,2788
16.5855,2740
16.6072,2771
16.6289,2783
16.6507,2837
16.6724,2764
16.6941,2734
16.7159,2756
16.7376,2773
16.7593,2785
16.7811,2765
16.8028,2790
16.8245,2718
16.8463,2813
16.868,2661
16.8897,2735
16.9115,2604
16.9332,2724
16.9549,2747
16.9767,2718
16.9984,2734
17.0201,2660
17.0419,2692
17.0636,2692
17.0853,2597
17.1071,2616
17.1288,2594
17.1505,2643
17.1723,2659
17.194,2612
17.2157,2589
17.2375,2748
17.2592,2670
17.2809,2617
17.3027,2697
17.3244,2615
17.3461,2743
17.3679,2594
17.3896,2614
17.4113,2619
17.4331,2636
17.4548,2691
17.4765,2659
17.4983,2670
17.52,2648
17.5417,2625
17.5635,2688
17.5852,2571
17.6069,2659
17.6287,2642
17.6504,2678
17.6721,2583
17.6939,2560
17.7156,2481
17.7373,2522
17.7591,2548
17.7808,2534
17.8025,2563
17.8243,2537
17.846,2572
17.8677,2518
17.8895,2609
17.9112,2571
17.9329,2576
17.9547,2441
17.9764,2629
17.9981,2464
18.0199,2521
18.0416,2394
18.0633,2468
18.0851,2463
18.1068,2458
18.1285,2455
18.1503,2662
18.172,2584
18.1937,2544
18.2154,2540
18.2372,2524
18.2589,2566
18.2806,2441
18.3024,2500
18.3241,2513
18.3458,2516
18.3676,2501
18.3893,2470
18.411,2519
18.4328,2515
18.4545,2537
18.4762,2420
18.498,2526
18.5197,2570
18.5414,2507
18.5632,2488
18.5849,2547
18.6066,2620
18.6284,2451
18.6501,2395
18.6718,2417
18.6936,2591
18.7153,2521
18.737,2517
18.7588,2464
18.7805,2466
18.8022,2363
18.824,2483
18.8457,2451
18.8674,2510
18.8892,2536
18.9109,2537
18.9326,2460
18.9544,2514
18.9761,2476
18.9978,2464
19.0196,2411
19.0413,2512
19.063,2511
19.0848,2465
19.1065,2470
19.1282,2447
19.15,2538
19.1717,2521
19.1934,2473
19.2152,2458
19.2369,2522
19.2586,2428
19.2804,2481
19.3021,2468
19.3238,2426
19.3456,2473
19.3673,2432
19.389,2455
19.4108,2446
19.4325,2551
19.4542,2468
19.476,2399
19.4977,2409
19.5194,2445
19.5412,2480
19.5629,2504
19.5846,2536
19.6064,2511
19.6281,2479
19.6498,2535
19.6716,2456
19.6933,2498
19.715,2440
19.7368,2472
19.7585,2481
19.7802,2579
19.8019,2562
19.8237,2486
19.8454,2616
19.8671,2519
19.8889,2578
19.9106,2552
19.9323,2623
19.9541,2612
19.9758,2580
19.9975,2606
20.0193,2641
20.041,2605
20.0627,2795
20.0845,2699
20.1062,2729
20.1279,2686
20.1497,2791
20.1714,2821
20.1931,2771
20.2149,2880
20.2366,2857
20.2583,2963
20.2801,2870
20.3018,2846
20.3235,2816
20.3453,2891
20.367,2748
20.3887,2743
20.4105,2715
20.4322,2697
20.4539,2601
20.4757,2706
20.4974,2607
20.5191,2600
20.5409,2660
20.5626,2680
20.5843,2659
20.6061,2587
20.6278,2652
20.6495,2577
20.6713,2533
20.693,2573
20.7147,2668
20.7365,2606
20.7582,2574
20.7799,2596
20.8017,2673
20.8234,2645
20.8451,2723
20.8669,2694
20.8886,2716
20.9103,2721
20.9321,2774
20.9538,2802
20.9755,2670
20.9973,2609
21.019,2613
21.0407,2530
21.0625,2503
21.0842,2479
21.1059,2467
21.1277,2541
21.1494,2479
21.1711,2436
21.1929,2476
21.2146,2480
21.2363,2541
21.2581,2514
21.2798,2388
21.3015,2401
21.3233,2459
21.345,2514
21.3667,2481
21.3884,2460
21.4102,2445
21.4319,2297
21.4536,2352
21.4754,2466
21.4971,2509
21.5188,2487
21.5406,2395
21.5623,2475
21.584,2421
21.6058,2352
21.6275,2466
21.6492,2449
21.671,2358
21.6927,2333
21.7144,2397
21.7362,2444
21.7579,2469
21.7796,2473
21.8014,2478
21.8231,2447
21.8448,2382
21.8666,2415
21.8883,2472
21.91,2400
21.9318,2413
21.9535,2480
21.9752,2371
21.997,2455
22.0187,2484
22.0404,2449
22.0622,2464
22.0839,2375
22.1056,2421
22.1274,2440
22.1491,2390
22.1708,2524
22.1926,2585
22.2143,2513
22.236,2560
22.2578,2389
22.2795,2615
22.3012,2608
22.323,2574
22.3447,2639
22.3664,2666
22.3882,2827
22.4099,2846
22.4316,2812
22.4534,2851
22.4751,2753
22.4968,2957
22.5186,3020
22.5403,2931
22.562,3117
22.5838,3010
22.6055,3198
22.6272,3236
22.649,3267
22.6707,3275
22.6924,3355
22.7142,3349
22.7359,3402
22.7576,3439
22.7794,3543
22.8011,3557
22.8228,3551
22.8446,3438
22.8663,3483
22.888,3528
22.9098,3328
22.9315,3406
22.9532,3267
22.9749,3354
22.9967,3277
23.0184,3353
23.0401,3328
23.0619,3261
23.0836,3204
23.1053,3202
23.1271,3197
23.1488,3252
23.1705,3267
23.1923,3212
23.214,3213
23.2357,3298
23.2575,3268
23.2792,3228
23.3009,3239
23.3227,3275
23.3444,3196
23.3661,3133
23.3879,3250
23.4096,3088
23.4313,3179
23.4531,3105
23.4748,3190
23.4965,3228
23.5183,3153
23.54,3137
23.5617,3130
23.5835,3168
23.6052,3181
23.6269,3152
23.6487,3094
23.6704,3093
23.6921,3257
23.7139,3193
23.7356,3141
23.7573,3210
23.7791,3218
23.8008,3174
23.8225,3125
23.8443,3395
23.866,3363
23.8877,3270
23.9095,3449
23.9312,3393
23.9529,3421
23.9747,3225
23.9964,3312
24.0181,3335
24.0399,3310
24.0616,3271
24.0833,3266
24.1051,3251
24.1268,3238
24.1485,3280
24.1703,3246
24.192,3229
24.2137,3191
24.2355,3269
24.2572,3292
24.2789,3314
24.3007,3298
24.3224,3309
24.3441,3239
24.3659,3213
24.3876,3240
24.4093,3261
24.4311,3303
24.4528,3306
24.4745,3336
24.4963,3351
24.518,3248
24.5397,3217
24.5615,3172
24.5832,3187
24.6049,3284
24.6266,3101
24.6484,3226
24.6701,3207
24.6918,3155
24.7136,3099
24.7353,3043
24.757,3143
24.7788,3090
24.8005,3110
24.8222,3132
24.844,3014
24.8657,3107
24.8874,3033
24.9092,3101
24.9309,3012
24.9526,2992
24.9744,3081
24.9961,3051
25.0178,3058
25.0396,3116
25.0613,3039
25.083,3147
25.1048,3057
25.1265,3090
25.1482,3003
25.17,3043
25.1917,3107
25.2134,3027
25.2352,3085
25.2569,3111
25.2786,3000
25.3004,2993
25.3221,3010
25.3438,2945
25.3656,2935
25.3873,2986
25.409,2954
25.4308,2929
25.4525,2923
25.4742,2945
25.496,2913
25.5177,2958
25.5394,3009
25.5612,2882
25.5829,2894
25.6046,2914
25.6264,3035
25.6481,2889
25.6698,2916
25.6916,2957
25.7133,2859
25.735,2845
25.7568,2978
25.7785,3012
25.8002,2917
25.822,3032
25.8437,2973
25.8654,2871
25.8872,2923
25.9089,2975
25.9306,2957
25.9524,2862
25.9741,2881
25.9958,2929
26.0176,2961
26.0393,2871
26.061,2808
26.0828,2984
26.1045,2970
26.1262,2915
26.148,2844
26.1697,2953
26.1914,2915
26.2131,2909
26.2349,2940
26.2566,2967
26.2783,2953
26.3001,2971
26.3218,2984
26.3435,2934
26.3653,3025
26.387,2965
26.4087,2844
26.4305,3035
26.4522,3004
26.4739,2998
26.4957,2948
26.5174,3025
26.5391,2939
26.5609,2941
26.5826,2983
26.6043,3045
26.6261,3039
26.6478,2953
26.6695,3033
26.6913,2971
26.713,3011
26.7347,2982
26.7565,3060
26.7782,3062
26.7999,3194
26.8217,3044
26.8434,3046
26.8651,3082
26.8869,3118
26.9086,3226
26.9303,3138
26.9521,3124
26.9738,3159
26.9955,3168
27.0173,3239
27.039,3153
27.0607,3218
27.0825,3223
27.1042,3207
27.1259,3152
27.1477,3310
27.1694,3194
27.1911,3351
27.2129,3328
27.2346,3287
27.2563,3215
27.2781,3226
27.2998,3280
27.3215,3271
27.3433,3256
27.365,3311
27.3867,3454
27.4085,3422
27.4302,3361
27.4519,3425
27.4737,3562
27.4954,3463
27.5171,3417
27.5389,3532
27.5606,3604
27.5823,3568
27.6041,3688
27.6258,3655
27.6475,3740
27.6693,3721
27.691,3771
27.7127,3828
27.7345,3810
27.7562,3932
27.7779,4064
27.7996,4121
27.8214,4195
27.8431,4186
27.8648,4136
27.8866,4264
27.9083,4416
27.93,4450
27.9518,4670
27.9735,4665
27.9952,4804
28.017,4827
28.0387,5109
28.0604,5139
28.0822,5122
28.1039,5324
28.1256,5455
28.1474,5812
28.1691,5879
28.1908,6191
28.2126,6432
28.2343,6630
28.256,6794
28.2778,7253
28.2995,7669
28.3212,8113
28.343,8486
28.3647,9157
28.3864,9596
28.4082,10571
28.4299,11289
28.4516,12448
28.4734,13418
28.4951,14663
28.5168,16035
28.5386,17238
28.5603,18495
28.582,19600
28.6038,20197
28.6255,20641
28.6472,20125
28.669,19350
28.6907,18118
28.7124,16852
28.7342,15404
28.7559,14291
28.7776,13041
28.7994,11936
28.8211,11120
28.8428,10330
28.8646,9696
28.8863,9295
28.908,9008
28.9298,8351
28.9515,8189
28.9732,7877
28.995,7626
29.0167,7297
29.0384,7178
29.0602,7069
29.0819,6939
29.1036,6591
29.1254,6468
29.1471,6412
29.1688,6120
29.1906,6029
29.2123,5947
29.234,5857
29.2558,5659
29.2775,5634
29.2992,5574
29.321,5223
29.3427,5123
29.3644,5344
29.3861,5227
29.4079,5048
29.4296,4960
29.4513,4892
29.4731,5048
29.4948,4888
29.5165,4904
29.5383,4715
29.56,4669
29.5817,4606
29.6035,4707
29.6252,4550
29.6469,4512
29.6687,4485
29.6904,4408
29.7121,4388
29.7339,4308
29.7556,4340
29.7773,4380
29.7991,4185
29.8208,4122
29.8425,4313
29.8643,4267
29.886,4154
29.9077,4305
29.9295,4293
29.9512,4280
29.9729,4228
29.9947,4258