File: clay-plate-XRD-S2-2022/ENVT4461 S-12 Mg+Gly.csv
"Angle","Counts"
3.00243,25687
3.02417,24703
3.0459,24464
3.06763,24148
3.08936,23377
3.1111,22793
3.13283,22305
3.15456,21862
3.1763,21430
3.19803,20688
3.21976,20449
3.24149,20153
3.26323,19681
3.28496,19498
3.30669,18666
3.32843,18455
3.35016,18421
3.37189,18081
3.39363,17939
3.41536,17508
3.43709,17279
3.45882,16906
3.48056,16383
3.50229,16232
3.52402,15841
3.54576,15693
3.56749,15589
3.58922,15374
3.61095,15111
3.63269,14743
3.65442,14424
3.67615,14435
3.69789,14224
3.71962,14099
3.74135,13808
3.76308,13495
3.78482,13453
3.80655,13156
3.82828,13157
3.85002,12816
3.87175,12773
3.89348,12610
3.91521,12329
3.93695,12385
3.95868,12107
3.98041,11838
4.00215,11880
4.02388,11848
4.04561,11658
4.06734,11666
4.08908,11344
4.11081,11389
4.13254,11294
4.15428,11127
4.17601,10889
4.19774,11079
4.21947,10889
4.24121,10703
4.26294,10575
4.28467,10598
4.30641,10515
4.32814,10305
4.34987,10328
4.3716,10377
4.39334,10054
4.41507,10212
4.4368,10039
4.45854,10004
4.48027,9907
4.502,9832
4.52373,9716
4.54547,9803
4.5672,9692
4.58893,9608
4.61067,9644
4.6324,9807
4.65413,9719
4.67586,9521
4.6976,9455
4.71933,9721
4.74106,9485
4.7628,9449
4.78453,9633
4.80626,9744
4.828,9454
4.84973,9645
4.87146,9292
4.89319,9602
4.91493,9477
4.93666,9494
4.95839,9484
4.98013,9446
5.00186,9417
5.02359,9506
5.04532,9618
5.06706,9481
5.08879,9571
5.11052,9472
5.13226,9580
5.15399,9580
5.17572,9615
5.19745,9459
5.21919,9615
5.24092,9642
5.26265,9594
5.28439,9631
5.30612,9606
5.32785,9650
5.34958,9669
5.37132,9825
5.39305,9826
5.41478,9778
5.43652,9866
5.45825,9927
5.47998,9832
5.50171,9807
5.52345,9792
5.54518,10032
5.56691,9791
5.58865,9869
5.61038,9920
5.63211,9978
5.65384,9993
5.67558,9943
5.69731,10104
5.71904,10130
5.74078,10198
5.76251,10296
5.78424,10301
5.80597,10048
5.82771,10419
5.84944,10334
5.87117,10308
5.89291,10353
5.91464,10317
5.93637,10231
5.9581,10315
5.97984,10516
6.00157,10573
6.0233,10434
6.04504,10470
6.06677,10371
6.0885,10623
6.11024,10674
6.13197,10510
6.1537,10722
6.17543,10540
6.19717,10693
6.2189,10520
6.24063,10639
6.26237,10677
6.2841,10673
6.30583,10688
6.32756,10772
6.3493,10591
6.37103,10762
6.39276,10691
6.4145,10533
6.43623,10668
6.45796,10692
6.47969,10506
6.50143,10749
6.52316,10579
6.54489,10629
6.56663,10520
6.58836,10441
6.61009,10660
6.63182,10571
6.65356,10700
6.67529,10375
6.69702,10520
6.71876,10372
6.74049,10479
6.76222,10417
6.78395,10328
6.80569,10315
6.82742,10263
6.84915,10198
6.87089,10383
6.89262,10271
6.91435,10310
6.93608,9954
6.95782,10029
6.97955,10129
7.00128,9955
7.02302,10078
7.04475,10140
7.06648,10072
7.08821,10050
7.10995,9952
7.13168,9763
7.15341,9932
7.17515,9730
7.19688,9780
7.21861,9642
7.24034,9602
7.26208,9544
7.28381,9482
7.30554,9539
7.32728,9431
7.34901,9396
7.37074,9379
7.39247,9217
7.41421,9134
7.43594,9152
7.45767,9269
7.47941,9126
7.50114,9026
7.52287,9284
7.54461,9001
7.56634,9031
7.58807,8969
7.6098,8851
7.63154,8768
7.65327,8731
7.675,8816
7.69674,8839
7.71847,8542
7.7402,8579
7.76193,8601
7.78367,8606
7.8054,8423
7.82713,8693
7.84887,8440
7.8706,8244
7.89233,8290
7.91406,8359
7.9358,8376
7.95753,8255
7.97926,8210
8.001,8060
8.02273,8082
8.04446,8188
8.06619,8150
8.08793,8134
8.10966,7981
8.13139,7899
8.15313,7926
8.17486,7713
8.19659,7828
8.21832,7638
8.24006,7870
8.26179,7793
8.28352,7739
8.30526,7647
8.32699,7787
8.34872,7541
8.37045,7619
8.39219,7626
8.41392,7632
8.43565,7720
8.45739,7592
8.47912,7476
8.50085,7416
8.52258,7324
8.54432,7708
8.56605,7377
8.58778,7384
8.60952,7381
8.63125,7478
8.65298,7352
8.67471,7191
8.69645,7327
8.71818,7230
8.73991,7118
8.76165,7224
8.78338,7233
8.80511,7140
8.82685,7173
8.84858,7060
8.87031,7162
8.89204,7037
8.91378,7015
8.93551,7000
8.95724,7136
8.97898,7046
9.00071,6970
9.02244,6994
9.04417,6901
9.06591,6947
9.08764,7122
9.10937,6915
9.13111,6946
9.15284,6802
9.17457,7127
9.1963,6996
9.21804,7050
9.23977,6824
9.2615,7031
9.28324,6941
9.30497,6824
9.3267,7079
9.34843,6776
9.37017,6971
9.3919,6886
9.41363,6990
9.43537,6953
9.4571,7068
9.47883,6970
9.50056,6925
9.5223,6897
9.54403,6994
9.56576,6842
9.5875,7035
9.60923,7085
9.63096,7009
9.65269,6951
9.67443,7078
9.69616,7220
9.71789,7279
9.73963,7124
9.76136,7128
9.78309,7224
9.80482,7318
9.82656,7367
9.84829,7418
9.87002,7531
9.89176,7400
9.91349,7385
9.93522,7302
9.95695,7193
9.97869,6972
10.0004,7065
10.0222,6704
10.0439,6569
10.0656,6614
10.0874,6617
10.1091,6505
10.1308,6505
10.1526,6521
10.1743,6357
10.196,6349
10.2177,6345
10.2395,6273
10.2612,6284
10.2829,6351
10.3047,6154
10.3264,6204
10.3481,6233
10.3699,6234
10.3916,6180
10.4133,6129
10.4351,6133
10.4568,6169
10.4785,6200
10.5003,6254
10.522,6308
10.5437,6177
10.5655,6051
10.5872,6186
10.6089,5997
10.6307,6149
10.6524,5948
10.6741,5883
10.6959,5894
10.7176,5983
10.7393,5944
10.7611,5955
10.7828,5954
10.8045,5959
10.8263,5903
10.848,5732
10.8697,5953
10.8915,5714
10.9132,5784
10.9349,5763
10.9567,5724
10.9784,5614
11.0001,5870
11.0219,5847
11.0436,5836
11.0653,5684
11.0871,5871
11.1088,5700
11.1305,5726
11.1523,5853
11.174,5740
11.1957,5716
11.2175,5797
11.2392,5852
11.2609,5765
11.2827,5820
11.3044,5761
11.3261,5767
11.3479,5692
11.3696,5727
11.3913,5662
11.4131,5677
11.4348,5816
11.4565,5829
11.4783,5766
11.5,5765
11.5217,5802
11.5435,5776
11.5652,5804
11.5869,5855
11.6087,5778
11.6304,5760
11.6521,5713
11.6739,5670
11.6956,5642
11.7173,5840
11.7391,5695
11.7608,5814
11.7825,5836
11.8042,5687
11.826,5681
11.8477,5786
11.8694,5798
11.8912,5681
11.9129,5832
11.9346,5846
11.9564,5824
11.9781,5699
11.9998,5733
12.0216,5770
12.0433,5658
12.065,5889
12.0868,5766
12.1085,5846
12.1302,5786
12.152,5928
12.1737,5841
12.1954,5966
12.2172,6006
12.2389,6001
12.2606,6004
12.2824,5940
12.3041,5991
12.3258,6076
12.3476,6051
12.3693,6045
12.391,5959
12.4128,5864
12.4345,6081
12.4562,6121
12.478,6102
12.4997,6104
12.5214,6252
12.5432,6339
12.5649,6200
12.5866,6262
12.6084,6221
12.6301,6399
12.6518,6351
12.6736,6367
12.6953,6416
12.717,6438
12.7388,6373
12.7605,6502
12.7822,6412
12.804,6606
12.8257,6543
12.8474,6731
12.8692,6587
12.8909,6778
12.9126,6808
12.9344,6716
12.9561,6870
12.9778,6867
12.9996,7002
13.0213,7109
13.043,7189
13.0648,7201
13.0865,7172
13.1082,7415
13.13,7716
13.1517,7589
13.1734,7505
13.1952,7807
13.2169,7662
13.2386,7741
13.2604,8117
13.2821,8117
13.3038,8192
13.3256,8247
13.3473,8644
13.369,8694
13.3907,9012
13.4125,9258
13.4342,9463
13.4559,9759
13.4777,9902
13.4994,10047
13.5211,10486
13.5429,10813
13.5646,11131
13.5863,11476
13.6081,12145
13.6298,12399
13.6515,13042
13.6733,13504
13.695,14160
13.7167,14990
13.7385,15488
13.7602,16236
13.7819,16838
13.8037,17762
13.8254,18539
13.8471,19567
13.8689,20382
13.8906,21003
13.9123,21625
13.9341,22123
13.9558,22389
13.9775,22121
13.9993,21337
14.021,20423
14.0427,19227
14.0645,17514
14.0862,15738
14.1079,14643
14.1297,13175
14.1514,11972
14.1731,10749
14.1949,10150
14.2166,9439
14.2383,8831
14.2601,8213
14.2818,8004
14.3035,7390
14.3253,7325
14.347,6820
14.3687,6709
14.3905,6496
14.4122,6136
14.4339,6029
14.4557,5778
14.4774,5624
14.4991,5481
14.5209,5263
14.5426,5243
14.5643,5114
14.5861,4962
14.6078,5010
14.6295,4856
14.6513,4797
14.673,4641
14.6947,4598
14.7165,4577
14.7382,4477
14.7599,4506
14.7817,4367
14.8034,4340
14.8251,4202
14.8469,4260
14.8686,4138
14.8903,4272
14.9121,4090
14.9338,4090
14.9555,3967
14.9773,3885
14.999,3945
15.0207,3920
15.0424,3825
15.0642,3829
15.0859,3833
15.1076,3792
15.1294,3721
15.1511,3664
15.1728,3645
15.1946,3644
15.2163,3620
15.238,3693
15.2598,3567
15.2815,3642
15.3032,3565
15.325,3453
15.3467,3541
15.3684,3396
15.3902,3459
15.4119,3507
15.4336,3372
15.4554,3338
15.4771,3371
15.4988,3403
15.5206,3412
15.5423,3355
15.564,3303
15.5858,3284
15.6075,3286
15.6292,3194
15.651,3258
15.6727,3276
15.6944,3278
15.7162,3146
15.7379,3240
15.7596,3248
15.7814,3256
15.8031,3241
15.8248,3153
15.8466,3302
15.8683,3232
15.89,3198
15.9118,3220
15.9335,3154
15.9552,3153
15.977,3150
15.9987,3158
16.0204,3008
16.0422,3036
16.0639,3087
16.0856,3137
16.1074,3114
16.1291,3104
16.1508,3105
16.1726,3101
16.1943,3103
16.216,3090
16.2378,3135
16.2595,3099
16.2812,3114
16.303,3169
16.3247,2989
16.3464,2977
16.3682,3036
16.3899,3048
16.4116,2992
16.4334,2995
16.4551,2887
16.4768,2981
16.4986,2964
16.5203,2930
16.542,2935
16.5638,2857
16.5855,2891
16.6072,2836
16.6289,2928
16.6507,2830
16.6724,2812
16.6941,2913
16.7159,2922
16.7376,2917
16.7593,2868
16.7811,2828
16.8028,2839
16.8245,2851
16.8463,2748
16.868,2822
16.8897,2863
16.9115,2731
16.9332,2777
16.9549,2859
16.9767,2781
16.9984,2830
17.0201,2739
17.0419,2870
17.0636,2857
17.0853,2772
17.1071,2687
17.1288,2784
17.1505,2732
17.1723,2724
17.194,2735
17.2157,2785
17.2375,2687
17.2592,2723
17.2809,2819
17.3027,2726
17.3244,2649
17.3461,2703
17.3679,2662
17.3896,2713
17.4113,2785
17.4331,2783
17.4548,2768
17.4765,2744
17.4983,2771
17.52,2694
17.5417,2615
17.5635,2726
17.5852,2616
17.6069,2743
17.6287,2657
17.6504,2648
17.6721,2703
17.6939,2651
17.7156,2611
17.7373,2621
17.7591,2696
17.7808,2731
17.8025,2677
17.8243,2632
17.846,2745
17.8677,2653
17.8895,2694
17.9112,2645
17.9329,2676
17.9547,2671
17.9764,2665
17.9981,2654
18.0199,2724
18.0416,2642
18.0633,2651
18.0851,2609
18.1068,2641
18.1285,2705
18.1503,2677
18.172,2600
18.1937,2745
18.2154,2573
18.2372,2626
18.2589,2731
18.2806,2642
18.3024,2658
18.3241,2606
18.3458,2600
18.3676,2654
18.3893,2591
18.411,2550
18.4328,2604
18.4545,2649
18.4762,2705
18.498,2552
18.5197,2674
18.5414,2671
18.5632,2644
18.5849,2638
18.6066,2562
18.6284,2577
18.6501,2585
18.6718,2678
18.6936,2672
18.7153,2596
18.737,2694
18.7588,2616
18.7805,2615
18.8022,2592
18.824,2612
18.8457,2495
18.8674,2597
18.8892,2597
18.9109,2647
18.9326,2592
18.9544,2663
18.9761,2654
18.9978,2650
19.0196,2607
19.0413,2537
19.063,2585
19.0848,2613
19.1065,2644
19.1282,2575
19.15,2578
19.1717,2677
19.1934,2578
19.2152,2774
19.2369,2599
19.2586,2674
19.2804,2648
19.3021,2689
19.3238,2614
19.3456,2564
19.3673,2656
19.389,2595
19.4108,2613
19.4325,2620
19.4542,2566
19.476,2645
19.4977,2572
19.5194,2596
19.5412,2616
19.5629,2560
19.5846,2583
19.6064,2578
19.6281,2571
19.6498,2616
19.6716,2621
19.6933,2685
19.715,2642
19.7368,2543
19.7585,2740
19.7802,2685
19.8019,2594
19.8237,2706
19.8454,2702
19.8671,2681
19.8889,2715
19.9106,2734
19.9323,2648
19.9541,2684
19.9758,2745
19.9975,2706
20.0193,2689
20.041,2784
20.0627,2819
20.0845,2787
20.1062,2816
20.1279,2880
20.1497,2969
20.1714,2977
20.1931,3026
20.2149,3058
20.2366,3037
20.2583,3115
20.2801,3097
20.3018,3056
20.3235,2975
20.3453,3102
20.367,2838
20.3887,2843
20.4105,2900
20.4322,2913
20.4539,2808
20.4757,2708
20.4974,2767
20.5191,2790
20.5409,2688
20.5626,2742
20.5843,2686
20.6061,2705
20.6278,2723
20.6495,2688
20.6713,2726
20.693,2671
20.7147,2638
20.7365,2722
20.7582,2661
20.7799,2651
20.8017,2650
20.8234,2795
20.8451,2725
20.8669,2774
20.8886,2859
20.9103,2730
20.9321,2798
20.9538,2660
20.9755,2633
20.9973,2712
21.019,2643
21.0407,2637
21.0625,2656
21.0842,2628
21.1059,2536
21.1277,2530
21.1494,2616
21.1711,2565
21.1929,2634
21.2146,2570
21.2363,2599
21.2581,2549
21.2798,2475
21.3015,2520
21.3233,2473
21.345,2521
21.3667,2575
21.3884,2587
21.4102,2482
21.4319,2481
21.4536,2564
21.4754,2459
21.4971,2520
21.5188,2452
21.5406,2623
21.5623,2460
21.584,2555
21.6058,2517
21.6275,2473
21.6492,2537
21.671,2525
21.6927,2617
21.7144,2549
21.7362,2479
21.7579,2531
21.7796,2543
21.8014,2521
21.8231,2546
21.8448,2543
21.8666,2481
21.8883,2440
21.91,2581
21.9318,2559
21.9535,2476
21.9752,2523
21.997,2546
22.0187,2583
22.0404,2398
22.0622,2593
22.0839,2580
22.1056,2562
22.1274,2602
22.1491,2620
22.1708,2640
22.1926,2665
22.2143,2688
22.236,2748
22.2578,2826
22.2795,2769
22.3012,2726
22.323,2759
22.3447,2804
22.3664,2856
22.3882,3004
22.4099,2877
22.4316,2803
22.4534,2952
22.4751,2937
22.4968,3060
22.5186,2999
22.5403,3124
22.562,3203
22.5838,3168
22.6055,3197
22.6272,3239
22.649,3340
22.6707,3242
22.6924,3311
22.7142,3402
22.7359,3453
22.7576,3550
22.7794,3333
22.8011,3418
22.8228,3361
22.8446,3406
22.8663,3342
22.888,3265
22.9098,3244
22.9315,3263
22.9532,3290
22.9749,3335
22.9967,3279
23.0184,3138
23.0401,3061
23.0619,3307
23.0836,3088
23.1053,3194
23.1271,3103
23.1488,3142
23.1705,3151
23.1923,3056
23.214,3233
23.2357,3235
23.2575,3146
23.2792,3078
23.3009,3122
23.3227,2976
23.3444,3000
23.3661,3115
23.3879,3142
23.4096,3148
23.4313,3052
23.4531,3062
23.4748,3125
23.4965,3057
23.5183,3083
23.54,3000
23.5617,3072
23.5835,3019
23.6052,3168
23.6269,3243
23.6487,3063
23.6704,3141
23.6921,3178
23.7139,3109
23.7356,3091
23.7573,3233
23.7791,3293
23.8008,3333
23.8225,3426
23.8443,3543
23.866,3511
23.8877,3531
23.9095,3353
23.9312,3317
23.9529,3407
23.9747,3187
23.9964,3185
24.0181,3237
24.0399,3066
24.0616,3079
24.0833,3152
24.1051,3158
24.1268,3088
24.1485,3030
24.1703,3094
24.192,3053
24.2137,3011
24.2355,3043
24.2572,2926
24.2789,3037
24.3007,3107
24.3224,2973
24.3441,2930
24.3659,2948
24.3876,2953
24.4093,2981
24.4311,2975
24.4528,2973
24.4745,2887
24.4963,2908
24.518,2979
24.5397,2986
24.5615,3060
24.5832,2985
24.6049,2896
24.6266,2965
24.6484,2912
24.6701,2930
24.6918,2998
24.7136,2984
24.7353,2994
24.757,2928
24.7788,3033
24.8005,3062
24.8222,3008
24.844,2903
24.8657,2999
24.8874,3063
24.9092,2972
24.9309,3234
24.9526,3071
24.9744,3044
24.9961,3181
25.0178,3151
25.0396,3123
25.0613,3179
25.083,3136
25.1048,3202
25.1265,3228
25.1482,3071
25.17,3246
25.1917,3133
25.2134,3167
25.2352,3068
25.2569,3160
25.2786,3049
25.3004,3065
25.3221,3083
25.3438,3077
25.3656,2963
25.3873,2926
25.409,2870
25.4308,2910
25.4525,2886
25.4742,2845
25.496,2848
25.5177,2843
25.5394,2945
25.5612,3017
25.5829,2949
25.6046,2884
25.6264,2967
25.6481,2937
25.6698,2954
25.6916,2937
25.7133,2859
25.735,2963
25.7568,2906
25.7785,2929
25.8002,2933
25.822,2921
25.8437,2867
25.8654,2979
25.8872,3013
25.9089,2990
25.9306,2944
25.9524,2909
25.9741,2980
25.9958,2956
26.0176,2975
26.0393,3017
26.061,2889
26.0828,3030
26.1045,2904
26.1262,2921
26.148,2919
26.1697,2987
26.1914,2998
26.2131,2861
26.2349,2973
26.2566,3000
26.2783,3044
26.3001,3034
26.3218,2926
26.3435,2943
26.3653,3081
26.387,2961
26.4087,2991
26.4305,3020
26.4522,3057
26.4739,3072
26.4957,3047
26.5174,3041
26.5391,2987
26.5609,3100
26.5826,3016
26.6043,3091
26.6261,3044
26.6478,3045
26.6695,3072
26.6913,3112
26.713,3093
26.7347,3075
26.7565,3096
26.7782,3109
26.7999,3100
26.8217,3139
26.8434,3146
26.8651,3028
26.8869,3084
26.9086,3082
26.9303,3256
26.9521,3154
26.9738,3284
26.9955,3179
27.0173,3273
27.039,3390
27.0607,3321
27.0825,3196
27.1042,3310
27.1259,3321
27.1477,3344
27.1694,3285
27.1911,3414
27.2129,3341
27.2346,3392
27.2563,3277
27.2781,3268
27.2998,3384
27.3215,3461
27.3433,3415
27.365,3523
27.3867,3518
27.4085,3532
27.4302,3451
27.4519,3440
27.4737,3537
27.4954,3581
27.5171,3650
27.5389,3783
27.5606,3693
27.5823,3860
27.6041,3797
27.6258,3854
27.6475,3866
27.6693,3933
27.691,3914
27.7127,4074
27.7345,3970
27.7562,4076
27.7779,4138
27.7996,4125
27.8214,4249
27.8431,4285
27.8648,4399
27.8866,4313
27.9083,4398
27.93,4583
27.9518,4656
27.9735,4717
27.9952,4778
28.017,4904
28.0387,5047
28.0604,5132
28.0822,5217
28.1039,5471
28.1256,5569
28.1474,5607
28.1691,6069
28.1908,6198
28.2126,6192
28.2343,6613
28.256,6898
28.2778,7163
28.2995,7377
28.3212,7623
28.343,7970
28.3647,8495
28.3864,9206
28.4082,9798
28.4299,10480
28.4516,11030
28.4734,11905
28.4951,12694
28.5168,14064
28.5386,14726
28.5603,15635
28.582,16362
28.6038,16717
28.6255,16421
28.6472,16155
28.669,15433
28.6907,15034
28.7124,13794
28.7342,12807
28.7559,12042
28.7776,11341
28.7994,10580
28.8211,10085
28.8428,9511
28.8646,9239
28.8863,8760
28.908,8452
28.9298,8299
28.9515,8059
28.9732,7828
28.995,7661
29.0167,7328
29.0384,7257
29.0602,7073
29.0819,7086
29.1036,6798
29.1254,6718
29.1471,6685
29.1688,6543
29.1906,6389
29.2123,6195
29.234,6196
29.2558,5907
29.2775,5848
29.2992,5718
29.321,5784
29.3427,5641
29.3644,5497
29.3861,5498
29.4079,5411
29.4296,5357
29.4513,5298
29.4731,5379
29.4948,5197
29.5165,5072
29.5383,5057
29.56,5100
29.5817,4965
29.6035,5068
29.6252,5057
29.6469,4798
29.6687,4939
29.6904,4732
29.7121,4768
29.7339,4673
29.7556,4785
29.7773,4655
29.7991,4666
29.8208,4650
29.8425,4640
29.8643,4695
29.886,4467
29.9077,4738
29.9295,4641
29.9512,4556
29.9729,4608
29.9947,4556