File: clay-plate-XRD-S2-2022/ENVT4461 S-13 Heated-400.csv
"Angle","Counts"
3.00243,25343
3.02417,24250
3.0459,23491
3.06763,23465
3.08936,22690
3.1111,22506
3.13283,21695
3.15456,21376
3.1763,20869
3.19803,20553
3.21976,20300
3.24149,19627
3.26323,19226
3.28496,18998
3.30669,18458
3.32843,18010
3.35016,17718
3.37189,17714
3.39363,17115
3.41536,16716
3.43709,16528
3.45882,16206
3.48056,15871
3.50229,15657
3.52402,15389
3.54576,15192
3.56749,15073
3.58922,14772
3.61095,14234
3.63269,14290
3.65442,14093
3.67615,13705
3.69789,13398
3.71962,13064
3.74135,12963
3.76308,12905
3.78482,12535
3.80655,12258
3.82828,12102
3.85002,11900
3.87175,12033
3.89348,11633
3.91521,11356
3.93695,11440
3.95868,11042
3.98041,10960
4.00215,10890
4.02388,10630
4.04561,10188
4.06734,10384
4.08908,10176
4.11081,10044
4.13254,9780
4.15428,9804
4.17601,9635
4.19774,9522
4.21947,9470
4.24121,9441
4.26294,9243
4.28467,9058
4.30641,9031
4.32814,8736
4.34987,8665
4.3716,8659
4.39334,8417
4.41507,8464
4.4368,8429
4.45854,8062
4.48027,7942
4.502,7889
4.52373,7714
4.54547,7686
4.5672,7795
4.58893,7497
4.61067,7597
4.6324,7409
4.65413,7321
4.67586,7437
4.6976,7247
4.71933,7232
4.74106,7128
4.7628,7136
4.78453,7115
4.80626,7078
4.828,6957
4.84973,6880
4.87146,6870
4.89319,6686
4.91493,6739
4.93666,6737
4.95839,6592
4.98013,6805
5.00186,6563
5.02359,6614
5.04532,6507
5.06706,6516
5.08879,6434
5.11052,6434
5.13226,6209
5.15399,6295
5.17572,6345
5.19745,6258
5.21919,6334
5.24092,6270
5.26265,6241
5.28439,6121
5.30612,6190
5.32785,6134
5.34958,6154
5.37132,6034
5.39305,6084
5.41478,6003
5.43652,5895
5.45825,5941
5.47998,5984
5.50171,5988
5.52345,6090
5.54518,5870
5.56691,5789
5.58865,5968
5.61038,5740
5.63211,5862
5.65384,5881
5.67558,5723
5.69731,5849
5.71904,5865
5.74078,5958
5.76251,5930
5.78424,5866
5.80597,5934
5.82771,5742
5.84944,5907
5.87117,5894
5.89291,5780
5.91464,5917
5.93637,5933
5.9581,5904
5.97984,5841
6.00157,5863
6.0233,5866
6.04504,5742
6.06677,5999
6.0885,5956
6.11024,5925
6.13197,5815
6.1537,6051
6.17543,5983
6.19717,6146
6.2189,5912
6.24063,6013
6.26237,5940
6.2841,5799
6.30583,6055
6.32756,6099
6.3493,6106
6.37103,6089
6.39276,5948
6.4145,5995
6.43623,6164
6.45796,6153
6.47969,6013
6.50143,6037
6.52316,5936
6.54489,6060
6.56663,6069
6.58836,5936
6.61009,6005
6.63182,5987
6.65356,6087
6.67529,6122
6.69702,6194
6.71876,6222
6.74049,6197
6.76222,6176
6.78395,6168
6.80569,6149
6.82742,6177
6.84915,6267
6.87089,6162
6.89262,6040
6.91435,6149
6.93608,6254
6.95782,6229
6.97955,6169
7.00128,6149
7.02302,6156
7.04475,6162
7.06648,6122
7.08821,6170
7.10995,6213
7.13168,6256
7.15341,6390
7.17515,6145
7.19688,6163
7.21861,6366
7.24034,6310
7.26208,6366
7.28381,6303
7.30554,6383
7.32728,6290
7.34901,6495
7.37074,6365
7.39247,6390
7.41421,6440
7.43594,6560
7.45767,6419
7.47941,6450
7.50114,6481
7.52287,6408
7.54461,6253
7.56634,6525
7.58807,6339
7.6098,6496
7.63154,6496
7.65327,6536
7.675,6536
7.69674,6600
7.71847,6424
7.7402,6349
7.76193,6515
7.78367,6539
7.8054,6613
7.82713,6631
7.84887,6467
7.8706,6629
7.89233,6449
7.91406,6412
7.9358,6615
7.95753,6655
7.97926,6474
8.001,6654
8.02273,6520
8.04446,6660
8.06619,6646
8.08793,6587
8.10966,6639
8.13139,6551
8.15313,6569
8.17486,6547
8.19659,6542
8.21832,6589
8.24006,6697
8.26179,6630
8.28352,6606
8.30526,6605
8.32699,6629
8.34872,6630
8.37045,6618
8.39219,6546
8.41392,6671
8.43565,6587
8.45739,6589
8.47912,6645
8.50085,6662
8.52258,6745
8.54432,6600
8.56605,6778
8.58778,6799
8.60952,6723
8.63125,6787
8.65298,6713
8.67471,6702
8.69645,6702
8.71818,6598
8.73991,6754
8.76165,6924
8.78338,6767
8.80511,6737
8.82685,6664
8.84858,6628
8.87031,6689
8.89204,6629
8.91378,6592
8.93551,6764
8.95724,6790
8.97898,6819
9.00071,6795
9.02244,6811
9.04417,6949
9.06591,6712
9.08764,6675
9.10937,6814
9.13111,6592
9.15284,6803
9.17457,6887
9.1963,6775
9.21804,6729
9.23977,6838
9.2615,6827
9.28324,7014
9.30497,6968
9.3267,7040
9.34843,6853
9.37017,6987
9.3919,7037
9.41363,7076
9.43537,7023
9.4571,7113
9.47883,7200
9.50056,7050
9.5223,7216
9.54403,7197
9.56576,7176
9.5875,7211
9.60923,7234
9.63096,7350
9.65269,7425
9.67443,7530
9.69616,7567
9.71789,7658
9.73963,7430
9.76136,7827
9.78309,7905
9.80482,7727
9.82656,7964
9.84829,7926
9.87002,7919
9.89176,7852
9.91349,7640
9.93522,7556
9.95695,7570
9.97869,7518
10.0004,7364
10.0222,7228
10.0439,7071
10.0656,7133
10.0874,6951
10.1091,6837
10.1308,6912
10.1526,6554
10.1743,6813
10.196,6796
10.2177,6606
10.2395,6618
10.2612,6626
10.2829,6533
10.3047,6586
10.3264,6598
10.3481,6455
10.3699,6552
10.3916,6453
10.4133,6449
10.4351,6287
10.4568,6543
10.4785,6397
10.5003,6344
10.522,6422
10.5437,6343
10.5655,6422
10.5872,6408
10.6089,6269
10.6307,6467
10.6524,6228
10.6741,6198
10.6959,6109
10.7176,6062
10.7393,6117
10.7611,6281
10.7828,6163
10.8045,6061
10.8263,6142
10.848,6216
10.8697,5981
10.8915,6077
10.9132,6143
10.9349,5925
10.9567,6029
10.9784,6035
11.0001,6001
11.0219,6045
11.0436,5932
11.0653,5996
11.0871,6006
11.1088,5911
11.1305,5910
11.1523,6064
11.174,6029
11.1957,6003
11.2175,5987
11.2392,5775
11.2609,5958
11.2827,6032
11.3044,6048
11.3261,5958
11.3479,5752
11.3696,5810
11.3913,6018
11.4131,5905
11.4348,6039
11.4565,5944
11.4783,5874
11.5,5963
11.5217,5864
11.5435,5782
11.5652,5790
11.5869,5853
11.6087,5817
11.6304,5772
11.6521,5860
11.6739,5687
11.6956,5849
11.7173,5988
11.7391,5883
11.7608,5893
11.7825,5893
11.8042,5990
11.826,6034
11.8477,5950
11.8694,5911
11.8912,5906
11.9129,5900
11.9346,6002
11.9564,5993
11.9781,5780
11.9998,5901
12.0216,5954
12.0433,5890
12.065,5908
12.0868,5908
12.1085,5874
12.1302,5874
12.152,6028
12.1737,5721
12.1954,5972
12.2172,6027
12.2389,5925
12.2606,6097
12.2824,6043
12.3041,6089
12.3258,6106
12.3476,6244
12.3693,6168
12.391,6183
12.4128,6217
12.4345,6176
12.4562,6194
12.478,6262
12.4997,6177
12.5214,6324
12.5432,6263
12.5649,6258
12.5866,6324
12.6084,6476
12.6301,6424
12.6518,6372
12.6736,6293
12.6953,6390
12.717,6469
12.7388,6427
12.7605,6496
12.7822,6453
12.804,6596
12.8257,6814
12.8474,6445
12.8692,6737
12.8909,6801
12.9126,6799
12.9344,6913
12.9561,6982
12.9778,6871
12.9996,6972
13.0213,7076
13.043,7280
13.0648,7386
13.0865,7404
13.1082,7459
13.13,7486
13.1517,7679
13.1734,7786
13.1952,7806
13.2169,7846
13.2386,8100
13.2604,8264
13.2821,8397
13.3038,8555
13.3256,8865
13.3473,8799
13.369,9168
13.3907,9381
13.4125,9579
13.4342,9812
13.4559,10123
13.4777,10513
13.4994,10982
13.5211,11312
13.5429,12065
13.5646,12341
13.5863,12998
13.6081,13705
13.6298,14291
13.6515,14989
13.6733,15956
13.695,16796
13.7167,17756
13.7385,18586
13.7602,20215
13.7819,21265
13.8037,22383
13.8254,23432
13.8471,24935
13.8689,26447
13.8906,27132
13.9123,28087
13.9341,28916
13.9558,29078
13.9775,29511
13.9993,28862
14.021,27396
14.0427,25568
14.0645,23032
14.0862,20388
14.1079,18171
14.1297,16130
14.1514,14626
14.1731,13291
14.1949,12115
14.2166,10815
14.2383,10108
14.2601,9557
14.2818,8822
14.3035,8532
14.3253,7955
14.347,7689
14.3687,7220
14.3905,6899
14.4122,6681
14.4339,6473
14.4557,6240
14.4774,6098
14.4991,5910
14.5209,5675
14.5426,5497
14.5643,5333
14.5861,5314
14.6078,5085
14.6295,5027
14.6513,4899
14.673,4865
14.6947,4652
14.7165,4735
14.7382,4529
14.7599,4622
14.7817,4299
14.8034,4437
14.8251,4312
14.8469,4262
14.8686,4259
14.8903,4103
14.9121,4144
14.9338,4086
14.9555,4094
14.9773,4020
14.999,4067
15.0207,3895
15.0424,3784
15.0642,3728
15.0859,3771
15.1076,3728
15.1294,3906
15.1511,3726
15.1728,3570
15.1946,3735
15.2163,3567
15.238,3519
15.2598,3666
15.2815,3609
15.3032,3532
15.325,3538
15.3467,3526
15.3684,3480
15.3902,3424
15.4119,3416
15.4336,3412
15.4554,3266
15.4771,3412
15.4988,3360
15.5206,3307
15.5423,3385
15.564,3251
15.5858,3313
15.6075,3267
15.6292,3240
15.651,3302
15.6727,3298
15.6944,3237
15.7162,3080
15.7379,3211
15.7596,3192
15.7814,3194
15.8031,3105
15.8248,3161
15.8466,3076
15.8683,3171
15.89,3131
15.9118,3127
15.9335,3000
15.9552,3163
15.977,2959
15.9987,3041
16.0204,3145
16.0422,3123
16.0639,3103
16.0856,3070
16.1074,3164
16.1291,3003
16.1508,3063
16.1726,3037
16.1943,3001
16.216,2964
16.2378,2945
16.2595,2963
16.2812,3016
16.303,2962
16.3247,3014
16.3464,2898
16.3682,2924
16.3899,2977
16.4116,2829
16.4334,2877
16.4551,2806
16.4768,2936
16.4986,2928
16.5203,2932
16.542,2855
16.5638,2838
16.5855,2864
16.6072,2910
16.6289,2951
16.6507,2854
16.6724,2740
16.6941,2753
16.7159,2779
16.7376,2842
16.7593,2768
16.7811,2867
16.8028,2749
16.8245,2806
16.8463,2774
16.868,2715
16.8897,2853
16.9115,2850
16.9332,2761
16.9549,2821
16.9767,2851
16.9984,2730
17.0201,2826
17.0419,2691
17.0636,2774
17.0853,2809
17.1071,2738
17.1288,2694
17.1505,2728
17.1723,2749
17.194,2687
17.2157,2639
17.2375,2698
17.2592,2694
17.2809,2683
17.3027,2785
17.3244,2746
17.3461,2686
17.3679,2668
17.3896,2592
17.4113,2653
17.4331,2642
17.4548,2742
17.4765,2650
17.4983,2562
17.52,2616
17.5417,2705
17.5635,2637
17.5852,2602
17.6069,2614
17.6287,2644
17.6504,2547
17.6721,2554
17.6939,2646
17.7156,2615
17.7373,2605
17.7591,2524
17.7808,2627
17.8025,2640
17.8243,2617
17.846,2671
17.8677,2601
17.8895,2618
17.9112,2558
17.9329,2603
17.9547,2545
17.9764,2633
17.9981,2675
18.0199,2681
18.0416,2646
18.0633,2624
18.0851,2546
18.1068,2652
18.1285,2525
18.1503,2615
18.172,2569
18.1937,2578
18.2154,2523
18.2372,2496
18.2589,2558
18.2806,2651
18.3024,2504
18.3241,2574
18.3458,2525
18.3676,2547
18.3893,2590
18.411,2598
18.4328,2520
18.4545,2556
18.4762,2503
18.498,2605
18.5197,2509
18.5414,2549
18.5632,2549
18.5849,2501
18.6066,2612
18.6284,2548
18.6501,2554
18.6718,2591
18.6936,2593
18.7153,2632
18.737,2542
18.7588,2458
18.7805,2543
18.8022,2588
18.824,2506
18.8457,2482
18.8674,2619
18.8892,2657
18.9109,2461
18.9326,2574
18.9544,2528
18.9761,2575
18.9978,2529
19.0196,2501
19.0413,2480
19.063,2540
19.0848,2553
19.1065,2467
19.1282,2423
19.15,2571
19.1717,2486
19.1934,2429
19.2152,2471
19.2369,2472
19.2586,2575
19.2804,2572
19.3021,2542
19.3238,2500
19.3456,2554
19.3673,2506
19.389,2527
19.4108,2599
19.4325,2615
19.4542,2591
19.476,2579
19.4977,2487
19.5194,2544
19.5412,2591
19.5629,2494
19.5846,2563
19.6064,2469
19.6281,2538
19.6498,2595
19.6716,2593
19.6933,2679
19.715,2614
19.7368,2607
19.7585,2660
19.7802,2525
19.8019,2570
19.8237,2599
19.8454,2555
19.8671,2632
19.8889,2647
19.9106,2574
19.9323,2554
19.9541,2509
19.9758,2668
19.9975,2664
20.0193,2780
20.041,2755
20.0627,2768
20.0845,2750
20.1062,2754
20.1279,2780
20.1497,2907
20.1714,2906
20.1931,2866
20.2149,2797
20.2366,2904
20.2583,2914
20.2801,2895
20.3018,2916
20.3235,2940
20.3453,3043
20.367,2869
20.3887,2753
20.4105,2772
20.4322,2737
20.4539,2666
20.4757,2678
20.4974,2700
20.5191,2677
20.5409,2751
20.5626,2636
20.5843,2675
20.6061,2581
20.6278,2640
20.6495,2605
20.6713,2609
20.693,2477
20.7147,2557
20.7365,2548
20.7582,2517
20.7799,2614
20.8017,2426
20.8234,2476
20.8451,2513
20.8669,2487
20.8886,2496
20.9103,2451
20.9321,2472
20.9538,2463
20.9755,2407
20.9973,2557
21.019,2465
21.0407,2497
21.0625,2478
21.0842,2534
21.1059,2473
21.1277,2441
21.1494,2530
21.1711,2520
21.1929,2524
21.2146,2540
21.2363,2529
21.2581,2457
21.2798,2478
21.3015,2456
21.3233,2402
21.345,2442
21.3667,2505
21.3884,2545
21.4102,2444
21.4319,2459
21.4536,2446
21.4754,2496
21.4971,2439
21.5188,2531
21.5406,2566
21.5623,2467
21.584,2498
21.6058,2469
21.6275,2451
21.6492,2478
21.671,2435
21.6927,2462
21.7144,2450
21.7362,2498
21.7579,2448
21.7796,2495
21.8014,2488
21.8231,2462
21.8448,2443
21.8666,2455
21.8883,2469
21.91,2344
21.9318,2390
21.9535,2343
21.9752,2403
21.997,2538
22.0187,2475
22.0404,2407
22.0622,2564
22.0839,2422
22.1056,2533
22.1274,2526
22.1491,2420
22.1708,2591
22.1926,2607
22.2143,2579
22.236,2651
22.2578,2621
22.2795,2693
22.3012,2738
22.323,2739
22.3447,2682
22.3664,2758
22.3882,2720
22.4099,2828
22.4316,2742
22.4534,2922
22.4751,2888
22.4968,2998
22.5186,2864
22.5403,2975
22.562,3133
22.5838,3051
22.6055,3204
22.6272,3189
22.649,3277
22.6707,3225
22.6924,3196
22.7142,3220
22.7359,3349
22.7576,3459
22.7794,3346
22.8011,3322
22.8228,3337
22.8446,3405
22.8663,3402
22.888,3428
22.9098,3336
22.9315,3246
22.9532,3212
22.9749,3231
22.9967,3158
23.0184,3199
23.0401,3081
23.0619,3207
23.0836,3157
23.1053,3182
23.1271,3216
23.1488,3181
23.1705,3131
23.1923,3091
23.214,3071
23.2357,3159
23.2575,3088
23.2792,3131
23.3009,3184
23.3227,3183
23.3444,3110
23.3661,3113
23.3879,3120
23.4096,3154
23.4313,3143
23.4531,3035
23.4748,3120
23.4965,3116
23.5183,3098
23.54,3065
23.5617,3004
23.5835,3068
23.6052,3114
23.6269,2984
23.6487,3101
23.6704,3172
23.6921,2996
23.7139,3191
23.7356,3126
23.7573,3089
23.7791,3206
23.8008,3177
23.8225,3302
23.8443,3224
23.866,3365
23.8877,3423
23.9095,3408
23.9312,3318
23.9529,3228
23.9747,3213
23.9964,3251
24.0181,3148
24.0399,3155
24.0616,3011
24.0833,3054
24.1051,3036
24.1268,3014
24.1485,2939
24.1703,3129
24.192,3024
24.2137,2921
24.2355,3022
24.2572,2903
24.2789,3063
24.3007,2902
24.3224,3017
24.3441,2979
24.3659,2915
24.3876,3079
24.4093,2963
24.4311,3008
24.4528,2934
24.4745,2863
24.4963,2984
24.518,3001
24.5397,2982
24.5615,3016
24.5832,2980
24.6049,3026
24.6266,2933
24.6484,2873
24.6701,2878
24.6918,2880
24.7136,2920
24.7353,2851
24.757,3044
24.7788,2826
24.8005,2961
24.8222,2917
24.844,2930
24.8657,2866
24.8874,2955
24.9092,3064
24.9309,2959
24.9526,3137
24.9744,3063
24.9961,2891
25.0178,2887
25.0396,2915
25.0613,2976
25.083,2996
25.1048,2982
25.1265,3051
25.1482,3021
25.17,2981
25.1917,2923
25.2134,2989
25.2352,2993
25.2569,3017
25.2786,2967
25.3004,2964
25.3221,2952
25.3438,3023
25.3656,2906
25.3873,2934
25.409,2992
25.4308,2941
25.4525,2952
25.4742,2949
25.496,2978
25.5177,2868
25.5394,2945
25.5612,2916
25.5829,2956
25.6046,2947
25.6264,3019
25.6481,2949
25.6698,2890
25.6916,2890
25.7133,3038
25.735,2922
25.7568,2973
25.7785,2971
25.8002,2910
25.822,2940
25.8437,2949
25.8654,2967
25.8872,3035
25.9089,2920
25.9306,2930
25.9524,2939
25.9741,2844
25.9958,3000
26.0176,2967
26.0393,2968
26.061,2895
26.0828,2883
26.1045,2897
26.1262,2919
26.148,2965
26.1697,2914
26.1914,2965
26.2131,2938
26.2349,3002
26.2566,2978
26.2783,2974
26.3001,2966
26.3218,2871
26.3435,2869
26.3653,2879
26.387,2953
26.4087,3005
26.4305,2880
26.4522,3009
26.4739,2964
26.4957,3089
26.5174,2958
26.5391,2942
26.5609,3054
26.5826,3027
26.6043,2857
26.6261,3023
26.6478,3032
26.6695,3056
26.6913,3052
26.713,3040
26.7347,3110
26.7565,2942
26.7782,2998
26.7999,3045
26.8217,3036
26.8434,2998
26.8651,3007
26.8869,3038
26.9086,3153
26.9303,3102
26.9521,3031
26.9738,3130
26.9955,3189
27.0173,3087
27.039,3197
27.0607,3276
27.0825,3269
27.1042,3141
27.1259,3249
27.1477,3172
27.1694,3310
27.1911,3158
27.2129,3317
27.2346,3327
27.2563,3332
27.2781,3304
27.2998,3464
27.3215,3369
27.3433,3387
27.365,3406
27.3867,3342
27.4085,3385
27.4302,3371
27.4519,3407
27.4737,3557
27.4954,3473
27.5171,3542
27.5389,3577
27.5606,3509
27.5823,3749
27.6041,3699
27.6258,3724
27.6475,3746
27.6693,3846
27.691,3871
27.7127,3887
27.7345,3879
27.7562,4064
27.7779,4056
27.7996,4182
27.8214,4283
27.8431,4209
27.8648,4332
27.8866,4394
27.9083,4403
27.93,4622
27.9518,4815
27.9735,4703
27.9952,4820
28.017,4905
28.0387,5107
28.0604,5253
28.0822,5359
28.1039,5619
28.1256,5569
28.1474,5769
28.1691,6014
28.1908,6285
28.2126,6485
28.2343,7010
28.256,7162
28.2778,7660
28.2995,7964
28.3212,8494
28.343,8990
28.3647,9672
28.3864,10342
28.4082,11367
28.4299,12321
28.4516,13463
28.4734,14396
28.4951,16013
28.5168,17303
28.5386,18860
28.5603,20221
28.582,21445
28.6038,22229
28.6255,21923
28.6472,21494
28.669,20678
28.6907,19184
28.7124,17759
28.7342,16678
28.7559,15389
28.7776,13935
28.7994,13210
28.8211,12229
28.8428,11298
28.8646,10479
28.8863,10029
28.908,9763
28.9298,9301
28.9515,9015
28.9732,8610
28.995,8450
29.0167,8215
29.0384,8046
29.0602,7729
29.0819,7621
29.1036,7472
29.1254,7361
29.1471,7170
29.1688,6988
29.1906,6676
29.2123,6570
29.234,6380
29.2558,6218
29.2775,6046
29.2992,6098
29.321,5903
29.3427,5767
29.3644,5875
29.3861,5738
29.4079,5610
29.4296,5688
29.4513,5627
29.4731,5541
29.4948,5447
29.5165,5349
29.5383,5248
29.56,5304
29.5817,5251
29.6035,5164
29.6252,4963
29.6469,5139
29.6687,4808
29.6904,4939
29.7121,4818
29.7339,4855
29.7556,4972
29.7773,4849
29.7991,4822
29.8208,4773
29.8425,4883
29.8643,4816
29.886,4666
29.9077,4686
29.9295,4698
29.9512,4784
29.9729,4799
29.9947,4610