File: clay-plate-XRD-S2-2022/ENVT4461 S-12 Mg.csv
"Angle","Counts"
3.00243,25431
3.02417,24400
3.0459,24430
3.06763,23643
3.08936,23112
3.1111,22530
3.13283,22124
3.15456,21765
3.1763,21382
3.19803,20517
3.21976,20472
3.24149,20122
3.26323,19469
3.28496,19402
3.30669,18887
3.32843,18593
3.35016,17990
3.37189,17495
3.39363,17429
3.41536,17387
3.43709,17061
3.45882,16400
3.48056,16431
3.50229,16070
3.52402,15642
3.54576,15762
3.56749,15573
3.58922,15160
3.61095,15106
3.63269,14668
3.65442,14467
3.67615,14261
3.69789,13868
3.71962,13874
3.74135,13618
3.76308,13538
3.78482,13414
3.80655,13063
3.82828,12800
3.85002,12802
3.87175,12794
3.89348,12442
3.91521,12369
3.93695,12237
3.95868,11997
3.98041,11895
4.00215,11899
4.02388,11579
4.04561,11702
4.06734,11659
4.08908,11338
4.11081,11291
4.13254,11087
4.15428,10963
4.17601,10946
4.19774,10855
4.21947,10721
4.24121,10748
4.26294,10475
4.28467,10587
4.30641,10244
4.32814,10201
4.34987,10174
4.3716,10355
4.39334,10100
4.41507,9976
4.4368,10035
4.45854,9897
4.48027,9939
4.502,9781
4.52373,9725
4.54547,9906
4.5672,9597
4.58893,9663
4.61067,9555
4.6324,9649
4.65413,9566
4.67586,9606
4.6976,9528
4.71933,9518
4.74106,9539
4.7628,9435
4.78453,9389
4.80626,9445
4.828,9519
4.84973,9413
4.87146,9395
4.89319,9481
4.91493,9417
4.93666,9280
4.95839,9294
4.98013,9464
5.00186,9440
5.02359,9460
5.04532,9362
5.06706,9409
5.08879,9420
5.11052,9381
5.13226,9514
5.15399,9352
5.17572,9528
5.19745,9409
5.21919,9569
5.24092,9387
5.26265,9588
5.28439,9339
5.30612,9589
5.32785,9435
5.34958,9774
5.37132,9712
5.39305,9598
5.41478,9665
5.43652,9717
5.45825,9733
5.47998,9533
5.50171,9743
5.52345,9808
5.54518,9882
5.56691,9758
5.58865,9780
5.61038,9887
5.63211,10121
5.65384,10024
5.67558,10001
5.69731,9873
5.71904,10063
5.74078,10129
5.76251,9985
5.78424,10049
5.80597,10235
5.82771,10260
5.84944,10114
5.87117,10107
5.89291,10233
5.91464,10311
5.93637,10240
5.9581,10450
5.97984,10368
6.00157,10433
6.0233,10264
6.04504,10454
6.06677,10520
6.0885,10480
6.11024,10353
6.13197,10365
6.1537,10492
6.17543,10529
6.19717,10512
6.2189,10540
6.24063,10425
6.26237,10433
6.2841,10452
6.30583,10617
6.32756,10581
6.3493,10407
6.37103,10539
6.39276,10346
6.4145,10410
6.43623,10486
6.45796,10463
6.47969,10194
6.50143,10520
6.52316,10405
6.54489,10593
6.56663,10332
6.58836,10342
6.61009,10170
6.63182,10249
6.65356,10045
6.67529,10342
6.69702,10211
6.71876,10121
6.74049,10148
6.76222,10173
6.78395,9918
6.80569,10042
6.82742,9804
6.84915,10161
6.87089,9892
6.89262,9840
6.91435,9758
6.93608,9831
6.95782,9800
6.97955,9796
7.00128,9636
7.02302,9576
7.04475,9673
7.06648,9486
7.08821,9447
7.10995,9427
7.13168,9472
7.15341,9512
7.17515,9491
7.19688,9424
7.21861,9271
7.24034,9257
7.26208,9186
7.28381,9151
7.30554,9140
7.32728,9186
7.34901,9074
7.37074,9141
7.39247,8939
7.41421,8927
7.43594,8961
7.45767,8916
7.47941,8675
7.50114,8625
7.52287,8692
7.54461,8596
7.56634,8494
7.58807,8600
7.6098,8398
7.63154,8411
7.65327,8396
7.675,8528
7.69674,8356
7.71847,8339
7.7402,8311
7.76193,8205
7.78367,8234
7.8054,8243
7.82713,8018
7.84887,7941
7.8706,7977
7.89233,7932
7.91406,7884
7.9358,7872
7.95753,7855
7.97926,7845
8.001,7934
8.02273,7679
8.04446,7810
8.06619,7633
8.08793,7693
8.10966,7743
8.13139,7724
8.15313,7674
8.17486,7590
8.19659,7505
8.21832,7578
8.24006,7381
8.26179,7520
8.28352,7428
8.30526,7400
8.32699,7407
8.34872,7413
8.37045,7417
8.39219,7248
8.41392,7253
8.43565,7312
8.45739,7287
8.47912,7357
8.50085,6970
8.52258,7284
8.54432,7211
8.56605,7140
8.58778,7005
8.60952,7133
8.63125,7002
8.65298,6977
8.67471,6908
8.69645,7058
8.71818,6890
8.73991,6891
8.76165,6880
8.78338,6742
8.80511,6851
8.82685,6811
8.84858,6637
8.87031,6693
8.89204,6780
8.91378,6850
8.93551,6706
8.95724,6650
8.97898,6654
9.00071,6834
9.02244,6635
9.04417,6675
9.06591,6671
9.08764,6656
9.10937,6600
9.13111,6776
9.15284,6538
9.17457,6687
9.1963,6569
9.21804,6640
9.23977,6591
9.2615,6596
9.28324,6460
9.30497,6741
9.3267,6558
9.34843,6599
9.37017,6537
9.3919,6456
9.41363,6636
9.43537,6562
9.4571,6578
9.47883,6571
9.50056,6605
9.5223,6614
9.54403,6598
9.56576,6673
9.5875,6642
9.60923,6752
9.63096,6769
9.65269,6750
9.67443,6871
9.69616,6729
9.71789,6827
9.73963,6807
9.76136,6949
9.78309,7024
9.80482,6888
9.82656,6969
9.84829,7141
9.87002,6972
9.89176,7072
9.91349,7001
9.93522,6909
9.95695,6718
9.97869,6610
10.0004,6521
10.0222,6526
10.0439,6341
10.0656,6442
10.0874,6255
10.1091,6225
10.1308,6181
10.1526,6159
10.1743,6069
10.196,6246
10.2177,6131
10.2395,5945
10.2612,6050
10.2829,5891
10.3047,5934
10.3264,5968
10.3481,6041
10.3699,6002
10.3916,5870
10.4133,5903
10.4351,5909
10.4568,5940
10.4785,5783
10.5003,5779
10.522,5868
10.5437,5888
10.5655,5855
10.5872,5872
10.6089,5925
10.6307,5771
10.6524,5995
10.6741,5833
10.6959,5653
10.7176,5768
10.7393,5664
10.7611,5735
10.7828,5665
10.8045,5810
10.8263,5777
10.848,5604
10.8697,5595
10.8915,5743
10.9132,5511
10.9349,5666
10.9567,5687
10.9784,5635
11.0001,5753
11.0219,5654
11.0436,5589
11.0653,5506
11.0871,5580
11.1088,5603
11.1305,5701
11.1523,5594
11.174,5663
11.1957,5604
11.2175,5535
11.2392,5659
11.2609,5708
11.2827,5598
11.3044,5537
11.3261,5605
11.3479,5722
11.3696,5656
11.3913,5550
11.4131,5608
11.4348,5592
11.4565,5789
11.4783,5598
11.5,5652
11.5217,5781
11.5435,5698
11.5652,5602
11.5869,5677
11.6087,5674
11.6304,5682
11.6521,5608
11.6739,5747
11.6956,5637
11.7173,5708
11.7391,5799
11.7608,5814
11.7825,5857
11.8042,5545
11.826,5660
11.8477,5628
11.8694,5677
11.8912,5715
11.9129,5642
11.9346,5667
11.9564,5663
11.9781,5812
11.9998,5712
12.0216,5768
12.0433,5828
12.065,5797
12.0868,5800
12.1085,5917
12.1302,5945
12.152,5802
12.1737,5980
12.1954,5908
12.2172,5901
12.2389,5897
12.2606,6100
12.2824,5868
12.3041,5737
12.3258,5859
12.3476,5950
12.3693,6029
12.391,6027
12.4128,6020
12.4345,6070
12.4562,6084
12.478,5950
12.4997,6104
12.5214,6299
12.5432,6170
12.5649,6238
12.5866,6226
12.6084,6266
12.6301,6266
12.6518,6332
12.6736,6439
12.6953,6268
12.717,6330
12.7388,6350
12.7605,6551
12.7822,6467
12.804,6504
12.8257,6502
12.8474,6603
12.8692,6689
12.8909,6627
12.9126,6702
12.9344,6902
12.9561,6866
12.9778,6902
12.9996,7007
13.0213,6927
13.043,7071
13.0648,7097
13.0865,7098
13.1082,7265
13.13,7330
13.1517,7394
13.1734,7534
13.1952,7586
13.2169,7714
13.2386,7924
13.2604,7776
13.2821,8050
13.3038,8264
13.3256,8429
13.3473,8443
13.369,8575
13.3907,8714
13.4125,9042
13.4342,9150
13.4559,9560
13.4777,9676
13.4994,9941
13.5211,10338
13.5429,10500
13.5646,10913
13.5863,11277
13.6081,11755
13.6298,12173
13.6515,12743
13.6733,13157
13.695,13818
13.7167,14574
13.7385,15098
13.7602,15567
13.7819,16387
13.8037,17025
13.8254,17855
13.8471,18601
13.8689,19220
13.8906,20033
13.9123,20371
13.9341,20251
13.9558,20472
13.9775,20434
13.9993,19465
14.021,18665
14.0427,17063
14.0645,15691
14.0862,14229
14.1079,13191
14.1297,11813
14.1514,10860
14.1731,9950
14.1949,9322
14.2166,8723
14.2383,8246
14.2601,7668
14.2818,7412
14.3035,7168
14.3253,6865
14.347,6566
14.3687,6330
14.3905,6104
14.4122,5846
14.4339,5622
14.4557,5471
14.4774,5300
14.4991,5319
14.5209,5231
14.5426,5183
14.5643,5044
14.5861,4860
14.6078,4838
14.6295,4699
14.6513,4616
14.673,4756
14.6947,4542
14.7165,4446
14.7382,4468
14.7599,4360
14.7817,4317
14.8034,4193
14.8251,4195
14.8469,4320
14.8686,4224
14.8903,4209
14.9121,4062
14.9338,4035
14.9555,3887
14.9773,3909
14.999,3903
15.0207,3973
15.0424,3822
15.0642,3803
15.0859,3801
15.1076,3780
15.1294,3740
15.1511,3777
15.1728,3745
15.1946,3684
15.2163,3661
15.238,3641
15.2598,3655
15.2815,3635
15.3032,3561
15.325,3610
15.3467,3553
15.3684,3518
15.3902,3507
15.4119,3539
15.4336,3551
15.4554,3519
15.4771,3593
15.4988,3438
15.5206,3564
15.5423,3447
15.564,3319
15.5858,3394
15.6075,3371
15.6292,3374
15.651,3374
15.6727,3301
15.6944,3363
15.7162,3375
15.7379,3389
15.7596,3395
15.7814,3330
15.8031,3364
15.8248,3302
15.8466,3203
15.8683,3375
15.89,3246
15.9118,3308
15.9335,3186
15.9552,3200
15.977,3156
15.9987,3235
16.0204,3090
16.0422,3297
16.0639,3197
16.0856,3275
16.1074,3323
16.1291,3263
16.1508,3255
16.1726,3291
16.1943,3338
16.216,3361
16.2378,3353
16.2595,3366
16.2812,3124
16.303,3173
16.3247,3060
16.3464,3045
16.3682,3084
16.3899,3075
16.4116,3198
16.4334,3062
16.4551,3114
16.4768,3150
16.4986,3085
16.5203,3104
16.542,2997
16.5638,2996
16.5855,3014
16.6072,3126
16.6289,3113
16.6507,2986
16.6724,3056
16.6941,3006
16.7159,3008
16.7376,2972
16.7593,2944
16.7811,3004
16.8028,3022
16.8245,3102
16.8463,2899
16.868,2898
16.8897,2952
16.9115,2937
16.9332,3009
16.9549,3045
16.9767,3037
16.9984,2913
17.0201,2823
17.0419,2912
17.0636,2987
17.0853,2945
17.1071,3010
17.1288,2893
17.1505,2817
17.1723,2912
17.194,2828
17.2157,2921
17.2375,2893
17.2592,2873
17.2809,2849
17.3027,2983
17.3244,2793
17.3461,2763
17.3679,2857
17.3896,2911
17.4113,2847
17.4331,2827
17.4548,2834
17.4765,2871
17.4983,2754
17.52,2938
17.5417,2925
17.5635,2910
17.5852,2859
17.6069,2813
17.6287,2847
17.6504,2915
17.6721,2841
17.6939,2875
17.7156,2755
17.7373,2787
17.7591,2873
17.7808,2805
17.8025,2833
17.8243,2798
17.846,2796
17.8677,2871
17.8895,2786
17.9112,2917
17.9329,2908
17.9547,2794
17.9764,2903
17.9981,2821
18.0199,2913
18.0416,2872
18.0633,2741
18.0851,2826
18.1068,2785
18.1285,2858
18.1503,2818
18.172,2783
18.1937,2831
18.2154,2746
18.2372,2805
18.2589,2844
18.2806,2826
18.3024,2904
18.3241,2858
18.3458,2731
18.3676,2849
18.3893,2813
18.411,2782
18.4328,2763
18.4545,2833
18.4762,2789
18.498,2867
18.5197,2945
18.5414,2843
18.5632,2850
18.5849,2853
18.6066,2903
18.6284,2783
18.6501,2791
18.6718,2722
18.6936,2765
18.7153,2893
18.737,2953
18.7588,2854
18.7805,2790
18.8022,2806
18.824,2837
18.8457,2910
18.8674,2768
18.8892,2767
18.9109,2716
18.9326,2693
18.9544,2806
18.9761,2787
18.9978,2866
19.0196,2796
19.0413,2678
19.063,2806
19.0848,2716
19.1065,2846
19.1282,2859
19.15,2733
19.1717,2781
19.1934,2790
19.2152,2824
19.2369,2785
19.2586,2712
19.2804,2772
19.3021,2754
19.3238,2680
19.3456,2757
19.3673,2837
19.389,2844
19.4108,2768
19.4325,2832
19.4542,2894
19.476,2825
19.4977,2818
19.5194,2816
19.5412,2769
19.5629,2864
19.5846,2741
19.6064,2755
19.6281,2801
19.6498,2814
19.6716,2857
19.6933,2779
19.715,2738
19.7368,2727
19.7585,2718
19.7802,2875
19.8019,2825
19.8237,2750
19.8454,2904
19.8671,2712
19.8889,2784
19.9106,2804
19.9323,2754
19.9541,2881
19.9758,2930
19.9975,2758
20.0193,2925
20.041,2932
20.0627,2953
20.0845,2981
20.1062,2940
20.1279,2931
20.1497,3071
20.1714,3051
20.1931,3120
20.2149,3082
20.2366,3131
20.2583,3096
20.2801,3140
20.3018,3062
20.3235,3043
20.3453,3059
20.367,3086
20.3887,3045
20.4105,2976
20.4322,2951
20.4539,2878
20.4757,2772
20.4974,2839
20.5191,2791
20.5409,2806
20.5626,2834
20.5843,2799
20.6061,2920
20.6278,2797
20.6495,2686
20.6713,2722
20.693,2853
20.7147,2725
20.7365,2790
20.7582,2791
20.7799,2771
20.8017,2775
20.8234,2860
20.8451,2766
20.8669,2849
20.8886,2863
20.9103,2810
20.9321,2736
20.9538,2799
20.9755,2870
20.9973,2741
21.019,2769
21.0407,2728
21.0625,2700
21.0842,2755
21.1059,2632
21.1277,2691
21.1494,2733
21.1711,2698
21.1929,2790
21.2146,2725
21.2363,2723
21.2581,2585
21.2798,2546
21.3015,2497
21.3233,2578
21.345,2706
21.3667,2594
21.3884,2581
21.4102,2637
21.4319,2637
21.4536,2638
21.4754,2630
21.4971,2521
21.5188,2596
21.5406,2596
21.5623,2676
21.584,2627
21.6058,2666
21.6275,2625
21.6492,2555
21.671,2645
21.6927,2657
21.7144,2536
21.7362,2573
21.7579,2546
21.7796,2579
21.8014,2470
21.8231,2555
21.8448,2562
21.8666,2572
21.8883,2612
21.91,2558
21.9318,2518
21.9535,2606
21.9752,2626
21.997,2666
22.0187,2693
22.0404,2608
22.0622,2675
22.0839,2649
22.1056,2794
22.1274,2692
22.1491,2763
22.1708,2839
22.1926,2735
22.2143,2747
22.236,2788
22.2578,2899
22.2795,2880
22.3012,2922
22.323,2846
22.3447,2911
22.3664,2944
22.3882,2927
22.4099,2929
22.4316,2981
22.4534,3028
22.4751,3040
22.4968,3124
22.5186,3237
22.5403,3256
22.562,3190
22.5838,3417
22.6055,3378
22.6272,3343
22.649,3393
22.6707,3479
22.6924,3409
22.7142,3510
22.7359,3387
22.7576,3345
22.7794,3448
22.8011,3464
22.8228,3421
22.8446,3370
22.8663,3378
22.888,3355
22.9098,3330
22.9315,3340
22.9532,3368
22.9749,3321
22.9967,3420
23.0184,3271
23.0401,3241
23.0619,3240
23.0836,3181
23.1053,3254
23.1271,3212
23.1488,3154
23.1705,3086
23.1923,3231
23.214,3277
23.2357,3293
23.2575,3209
23.2792,3130
23.3009,3125
23.3227,3208
23.3444,3160
23.3661,3128
23.3879,3209
23.4096,3158
23.4313,3117
23.4531,3139
23.4748,3123
23.4965,3032
23.5183,3127
23.54,3056
23.5617,3139
23.5835,3097
23.6052,3189
23.6269,3136
23.6487,3056
23.6704,3097
23.6921,3043
23.7139,3145
23.7356,3187
23.7573,3097
23.7791,3202
23.8008,3293
23.8225,3171
23.8443,3327
23.866,3350
23.8877,3357
23.9095,3380
23.9312,3312
23.9529,3285
23.9747,3266
23.9964,3207
24.0181,3049
24.0399,3189
24.0616,3204
24.0833,3111
24.1051,2977
24.1268,3121
24.1485,3085
24.1703,3095
24.192,2990
24.2137,3029
24.2355,3045
24.2572,3010
24.2789,2924
24.3007,3065
24.3224,3004
24.3441,3026
24.3659,3095
24.3876,3007
24.4093,3009
24.4311,2991
24.4528,3014
24.4745,3123
24.4963,2890
24.518,3003
24.5397,3062
24.5615,2961
24.5832,3116
24.6049,3064
24.6266,2933
24.6484,2914
24.6701,2887
24.6918,2978
24.7136,2931
24.7353,2947
24.757,3012
24.7788,3015
24.8005,3027
24.8222,3021
24.844,2968
24.8657,2933
24.8874,2914
24.9092,2895
24.9309,2904
24.9526,2931
24.9744,2915
24.9961,2819
25.0178,2922
25.0396,2865
25.0613,2907
25.083,2962
25.1048,2916
25.1265,3031
25.1482,2843
25.17,2891
25.1917,2931
25.2134,2868
25.2352,2917
25.2569,3030
25.2786,2984
25.3004,2983
25.3221,2925
25.3438,2868
25.3656,2925
25.3873,2954
25.409,2974
25.4308,2945
25.4525,2895
25.4742,2954
25.496,2895
25.5177,2961
25.5394,3023
25.5612,2903
25.5829,2987
25.6046,3038
25.6264,2967
25.6481,3047
25.6698,2967
25.6916,3079
25.7133,2943
25.735,3005
25.7568,3004
25.7785,3015
25.8002,3001
25.822,3011
25.8437,2950
25.8654,2987
25.8872,3017
25.9089,2958
25.9306,2924
25.9524,3016
25.9741,3017
25.9958,2994
26.0176,3077
26.0393,3001
26.061,3133
26.0828,2917
26.1045,2957
26.1262,2946
26.148,2981
26.1697,2958
26.1914,3099
26.2131,2955
26.2349,3020
26.2566,3012
26.2783,2945
26.3001,3091
26.3218,2973
26.3435,3039
26.3653,3064
26.387,3023
26.4087,3087
26.4305,3103
26.4522,3010
26.4739,2947
26.4957,3103
26.5174,3025
26.5391,3153
26.5609,3023
26.5826,3113
26.6043,3120
26.6261,3157
26.6478,3140
26.6695,3132
26.6913,3138
26.713,3099
26.7347,3171
26.7565,3100
26.7782,3081
26.7999,3214
26.8217,3090
26.8434,3128
26.8651,3073
26.8869,3089
26.9086,3124
26.9303,3240
26.9521,3226
26.9738,3202
26.9955,3240
27.0173,3342
27.039,3340
27.0607,3301
27.0825,3324
27.1042,3256
27.1259,3282
27.1477,3390
27.1694,3346
27.1911,3390
27.2129,3449
27.2346,3368
27.2563,3352
27.2781,3461
27.2998,3401
27.3215,3477
27.3433,3429
27.365,3395
27.3867,3507
27.4085,3491
27.4302,3527
27.4519,3558
27.4737,3618
27.4954,3607
27.5171,3675
27.5389,3664
27.5606,3717
27.5823,3792
27.6041,3797
27.6258,3922
27.6475,3971
27.6693,3988
27.691,4037
27.7127,3912
27.7345,4102
27.7562,4111
27.7779,4139
27.7996,4182
27.8214,4167
27.8431,4291
27.8648,4375
27.8866,4363
27.9083,4489
27.93,4395
27.9518,4599
27.9735,4641
27.9952,4735
28.017,4790
28.0387,4902
28.0604,5175
28.0822,5103
28.1039,5350
28.1256,5533
28.1474,5562
28.1691,5731
28.1908,6066
28.2126,6181
28.2343,6461
28.256,6613
28.2778,6925
28.2995,7327
28.3212,7636
28.343,8114
28.3647,8493
28.3864,9009
28.4082,9533
28.4299,9992
28.4516,11048
28.4734,11971
28.4951,12720
28.5168,13476
28.5386,14309
28.5603,14918
28.582,15490
28.6038,15864
28.6255,16132
28.6472,15452
28.669,14819
28.6907,13752
28.7124,13065
28.7342,12219
28.7559,11350
28.7776,10573
28.7994,10238
28.8211,9624
28.8428,9099
28.8646,8873
28.8863,8506
28.908,8005
28.9298,7720
28.9515,7702
28.9732,7615
28.995,7408
29.0167,7085
29.0384,7103
29.0602,6990
29.0819,6695
29.1036,6556
29.1254,6577
29.1471,6323
29.1688,6286
29.1906,6112
29.2123,6000
29.234,6034
29.2558,6009
29.2775,5958
29.2992,5924
29.321,6004
29.3427,6161
29.3644,6423
29.3861,6257
29.4079,6175
29.4296,5930
29.4513,5731
29.4731,5432
29.4948,5249
29.5165,5235
29.5383,5169
29.56,5006
29.5817,4898
29.6035,4779
29.6252,4793
29.6469,4841
29.6687,4795
29.6904,4665
29.7121,4592
29.7339,4523
29.7556,4643
29.7773,4579
29.7991,4502
29.8208,4640
29.8425,4554
29.8643,4528
29.886,4478
29.9077,4452
29.9295,4545
29.9512,4564
29.9729,4460
29.9947,4599