File: clay-plate-XRD-S2-2022/ENVT4461 S-01 Mg.csv
"Angle","Counts"
3.00243,25462
3.02417,24775
3.0459,24315
3.06763,23731
3.08936,23130
3.1111,22785
3.13283,22152
3.15456,21648
3.1763,21395
3.19803,20955
3.21976,20484
3.24149,20046
3.26323,19670
3.28496,19402
3.30669,19026
3.32843,18779
3.35016,18251
3.37189,17955
3.39363,17424
3.41536,17058
3.43709,16839
3.45882,16454
3.48056,16178
3.50229,15902
3.52402,15589
3.54576,15449
3.56749,14855
3.58922,14484
3.61095,14417
3.63269,13964
3.65442,13809
3.67615,13545
3.69789,13336
3.71962,13150
3.74135,12935
3.76308,12515
3.78482,12297
3.80655,12108
3.82828,12079
3.85002,11766
3.87175,11440
3.89348,11144
3.91521,11231
3.93695,10656
3.95868,10657
3.98041,10405
4.00215,10176
4.02388,10217
4.04561,9791
4.06734,9610
4.08908,9678
4.11081,9150
4.13254,9015
4.15428,8848
4.17601,8749
4.19774,8589
4.21947,8481
4.24121,8251
4.26294,8291
4.28467,7985
4.30641,7840
4.32814,7790
4.34987,7584
4.3716,7413
4.39334,7202
4.41507,7054
4.4368,6956
4.45854,6797
4.48027,6677
4.502,6639
4.52373,6552
4.54547,6464
4.5672,6323
4.58893,6145
4.61067,6086
4.6324,5963
4.65413,5827
4.67586,5680
4.6976,5694
4.71933,5707
4.74106,5474
4.7628,5266
4.78453,5245
4.80626,5225
4.828,5061
4.84973,4955
4.87146,4995
4.89319,4851
4.91493,4870
4.93666,4770
4.95839,4677
4.98013,4542
5.00186,4612
5.02359,4508
5.04532,4419
5.06706,4384
5.08879,4327
5.11052,4230
5.13226,4235
5.15399,4046
5.17572,4067
5.19745,3893
5.21919,3954
5.24092,3951
5.26265,3789
5.28439,3840
5.30612,3701
5.32785,3705
5.34958,3684
5.37132,3586
5.39305,3622
5.41478,3531
5.43652,3614
5.45825,3466
5.47998,3389
5.50171,3522
5.52345,3302
5.54518,3310
5.56691,3310
5.58865,3237
5.61038,3282
5.63211,3229
5.65384,3264
5.67558,3206
5.69731,3205
5.71904,3132
5.74078,3094
5.76251,3132
5.78424,2993
5.80597,3049
5.82771,2977
5.84944,3037
5.87117,3020
5.89291,3086
5.91464,2931
5.93637,3025
5.9581,3043
5.97984,2947
6.00157,2895
6.0233,2954
6.04504,2916
6.06677,2913
6.0885,2943
6.11024,2975
6.13197,2956
6.1537,2925
6.17543,2944
6.19717,2914
6.2189,2860
6.24063,2933
6.26237,2827
6.2841,3005
6.30583,2919
6.32756,2932
6.3493,2836
6.37103,2828
6.39276,2926
6.4145,2855
6.43623,2990
6.45796,2799
6.47969,2917
6.50143,2921
6.52316,2857
6.54489,2971
6.56663,2935
6.58836,2820
6.61009,2915
6.63182,2856
6.65356,2834
6.67529,2824
6.69702,2869
6.71876,2968
6.74049,2907
6.76222,2986
6.78395,2911
6.80569,2951
6.82742,2879
6.84915,3014
6.87089,3000
6.89262,2869
6.91435,2936
6.93608,2823
6.95782,2745
6.97955,2890
7.00128,2831
7.02302,2821
7.04475,2767
7.06648,2844
7.08821,2849
7.10995,2855
7.13168,2844
7.15341,2865
7.17515,2761
7.19688,2813
7.21861,2836
7.24034,2755
7.26208,2770
7.28381,2791
7.30554,2867
7.32728,2813
7.34901,2803
7.37074,2799
7.39247,2647
7.41421,2829
7.43594,2740
7.45767,2821
7.47941,2797
7.50114,2767
7.52287,2799
7.54461,2752
7.56634,2792
7.58807,2694
7.6098,2686
7.63154,2719
7.65327,2637
7.675,2672
7.69674,2700
7.71847,2651
7.7402,2662
7.76193,2673
7.78367,2697
7.8054,2664
7.82713,2596
7.84887,2682
7.8706,2654
7.89233,2687
7.91406,2645
7.9358,2593
7.95753,2557
7.97926,2566
8.001,2667
8.02273,2705
8.04446,2640
8.06619,2751
8.08793,2560
8.10966,2638
8.13139,2614
8.15313,2621
8.17486,2653
8.19659,2507
8.21832,2672
8.24006,2694
8.26179,2645
8.28352,2637
8.30526,2686
8.32699,2552
8.34872,2489
8.37045,2633
8.39219,2635
8.41392,2550
8.43565,2522
8.45739,2688
8.47912,2574
8.50085,2519
8.52258,2548
8.54432,2596
8.56605,2681
8.58778,2559
8.60952,2630
8.63125,2659
8.65298,2579
8.67471,2562
8.69645,2737
8.71818,2581
8.73991,2614
8.76165,2576
8.78338,2616
8.80511,2724
8.82685,2595
8.84858,2525
8.87031,2577
8.89204,2600
8.91378,2688
8.93551,2719
8.95724,2600
8.97898,2566
9.00071,2792
9.02244,2650
9.04417,2673
9.06591,2561
9.08764,2573
9.10937,2692
9.13111,2644
9.15284,2701
9.17457,2594
9.1963,2726
9.21804,2594
9.23977,2670
9.2615,2625
9.28324,2662
9.30497,2755
9.3267,2719
9.34843,2638
9.37017,2769
9.3919,2760
9.41363,2746
9.43537,2694
9.4571,2698
9.47883,2787
9.50056,2755
9.5223,2713
9.54403,2678
9.56576,2758
9.5875,2667
9.60923,2877
9.63096,2819
9.65269,2714
9.67443,2729
9.69616,2762
9.71789,2820
9.73963,2825
9.76136,2823
9.78309,2894
9.80482,2945
9.82656,2869
9.84829,2938
9.87002,2827
9.89176,2940
9.91349,2962
9.93522,2909
9.95695,2878
9.97869,2826
10.0004,2852
10.0222,2760
10.0439,2729
10.0656,2758
10.0874,2652
10.1091,2815
10.1308,2735
10.1526,2704
10.1743,2842
10.196,2748
10.2177,2709
10.2395,2735
10.2612,2751
10.2829,2760
10.3047,2662
10.3264,2639
10.3481,2702
10.3699,2677
10.3916,2702
10.4133,2768
10.4351,2755
10.4568,2783
10.4785,2647
10.5003,2774
10.522,2687
10.5437,2683
10.5655,2754
10.5872,2670
10.6089,2667
10.6307,2594
10.6524,2732
10.6741,2738
10.6959,2727
10.7176,2787
10.7393,2651
10.7611,2767
10.7828,2753
10.8045,2652
10.8263,2746
10.848,2787
10.8697,2672
10.8915,2834
10.9132,2791
10.9349,2794
10.9567,2925
10.9784,2788
11.0001,2785
11.0219,2934
11.0436,2951
11.0653,3004
11.0871,2879
11.1088,2901
11.1305,2901
11.1523,2946
11.174,3046
11.1957,3126
11.2175,3138
11.2392,3372
11.2609,3437
11.2827,3444
11.3044,3543
11.3261,3601
11.3479,3813
11.3696,3898
11.3913,3850
11.4131,3576
11.4348,3358
11.4565,3073
11.4783,2979
11.5,2942
11.5217,2817
11.5435,2866
11.5652,2804
11.5869,2837
11.6087,2775
11.6304,2816
11.6521,2779
11.6739,2844
11.6956,2911
11.7173,2857
11.7391,2879
11.7608,2804
11.7825,2835
11.8042,2889
11.826,2877
11.8477,2899
11.8694,2929
11.8912,2771
11.9129,2867
11.9346,2745
11.9564,2782
11.9781,2799
11.9998,2853
12.0216,2825
12.0433,2834
12.065,2790
12.0868,2870
12.1085,2925
12.1302,2886
12.152,2828
12.1737,2942
12.1954,2861
12.2172,2887
12.2389,2978
12.2606,2939
12.2824,2933
12.3041,2824
12.3258,2711
12.3476,2817
12.3693,2990
12.391,2986
12.4128,2888
12.4345,3015
12.4562,3004
12.478,2953
12.4997,2911
12.5214,3042
12.5432,2910
12.5649,2965
12.5866,2972
12.6084,2941
12.6301,3028
12.6518,2985
12.6736,3016
12.6953,2981
12.717,3013
12.7388,3124
12.7605,3064
12.7822,2957
12.804,3038
12.8257,3091
12.8474,3067
12.8692,3158
12.8909,3039
12.9126,3098
12.9344,3161
12.9561,3179
12.9778,3107
12.9996,3252
13.0213,3191
13.043,3263
13.0648,3327
13.0865,3378
13.1082,3292
13.13,3267
13.1517,3203
13.1734,3385
13.1952,3299
13.2169,3408
13.2386,3332
13.2604,3348
13.2821,3399
13.3038,3480
13.3256,3644
13.3473,3546
13.369,3534
13.3907,3723
13.4125,3698
13.4342,3760
13.4559,3842
13.4777,3744
13.4994,3933
13.5211,4024
13.5429,4025
13.5646,4065
13.5863,4124
13.6081,4380
13.6298,4310
13.6515,4431
13.6733,4578
13.695,4728
13.7167,4873
13.7385,4946
13.7602,4872
13.7819,5105
13.8037,5359
13.8254,5517
13.8471,5636
13.8689,5695
13.8906,5599
13.9123,6002
13.9341,5917
13.9558,6058
13.9775,5930
13.9993,5735
14.021,5562
14.0427,5303
14.0645,5085
14.0862,4731
14.1079,4678
14.1297,4296
14.1514,4122
14.1731,4025
14.1949,3730
14.2166,3652
14.2383,3588
14.2601,3487
14.2818,3388
14.3035,3246
14.3253,3251
14.347,3216
14.3687,3107
14.3905,2976
14.4122,3059
14.4339,3017
14.4557,2884
14.4774,2976
14.4991,2787
14.5209,2861
14.5426,2872
14.5643,2922
14.5861,2844
14.6078,2865
14.6295,2710
14.6513,2824
14.673,2784
14.6947,2807
14.7165,2786
14.7382,2768
14.7599,2740
14.7817,2596
14.8034,2659
14.8251,2645
14.8469,2670
14.8686,2561
14.8903,2561
14.9121,2681
14.9338,2491
14.9555,2633
14.9773,2639
14.999,2524
15.0207,2490
15.0424,2591
15.0642,2560
15.0859,2634
15.1076,2650
15.1294,2559
15.1511,2533
15.1728,2473
15.1946,2494
15.2163,2514
15.238,2581
15.2598,2525
15.2815,2490
15.3032,2565
15.325,2510
15.3467,2563
15.3684,2610
15.3902,2596
15.4119,2684
15.4336,2577
15.4554,2519
15.4771,2600
15.4988,2612
15.5206,2576
15.5423,2621
15.564,2620
15.5858,2469
15.6075,2495
15.6292,2643
15.651,2576
15.6727,2563
15.6944,2657
15.7162,2702
15.7379,2771
15.7596,2798
15.7814,2917
15.8031,3105
15.8248,3109
15.8466,3225
15.8683,3366
15.89,3513
15.9118,3577
15.9335,3606
15.9552,3946
15.977,4275
15.9987,4554
16.0204,5112
16.0422,5622
16.0639,6435
16.0856,7219
16.1074,8428
16.1291,9671
16.1508,11058
16.1726,12541
16.1943,14369
16.216,16622
16.2378,18820
16.2595,20433
16.2812,20083
16.303,16932
16.3247,12298
16.3464,8483
16.3682,5672
16.3899,4428
16.4116,3643
16.4334,3311
16.4551,3124
16.4768,3124
16.4986,3001
16.5203,2891
16.542,2951
16.5638,2764
16.5855,2828
16.6072,2996
16.6289,2804
16.6507,2891
16.6724,2800
16.6941,2905
16.7159,3044
16.7376,3078
16.7593,3086
16.7811,3192
16.8028,3236
16.8245,3414
16.8463,3411
16.868,3254
16.8897,3393
16.9115,3172
16.9332,3017
16.9549,2947
16.9767,2778
16.9984,2726
17.0201,2601
17.0419,2550
17.0636,2524
17.0853,2459
17.1071,2442
17.1288,2344
17.1505,2343
17.1723,2277
17.194,2365
17.2157,2453
17.2375,2364
17.2592,2279
17.2809,2263
17.3027,2350
17.3244,2297
17.3461,2273
17.3679,2283
17.3896,2262
17.4113,2273
17.4331,2178
17.4548,2172
17.4765,2303
17.4983,2231
17.52,2253
17.5417,2286
17.5635,2271
17.5852,2255
17.6069,2213
17.6287,2225
17.6504,2203
17.6721,2272
17.6939,2241
17.7156,2197
17.7373,2179
17.7591,2201
17.7808,2089
17.8025,2256
17.8243,2215
17.846,2212
17.8677,2220
17.8895,2157
17.9112,2163
17.9329,2135
17.9547,2238
17.9764,2177
17.9981,2126
18.0199,2166
18.0416,2204
18.0633,2278
18.0851,2191
18.1068,2133
18.1285,2185
18.1503,2213
18.172,2074
18.1937,2165
18.2154,2135
18.2372,2132
18.2589,2170
18.2806,2181
18.3024,2179
18.3241,2145
18.3458,2101
18.3676,2166
18.3893,2138
18.411,2085
18.4328,2132
18.4545,2144
18.4762,2179
18.498,2166
18.5197,2122
18.5414,2104
18.5632,2162
18.5849,2187
18.6066,2070
18.6284,2165
18.6501,2231
18.6718,2154
18.6936,2143
18.7153,2070
18.737,2102
18.7588,2090
18.7805,2042
18.8022,2061
18.824,2093
18.8457,2065
18.8674,2039
18.8892,2087
18.9109,2082
18.9326,2073
18.9544,2018
18.9761,2174
18.9978,2050
19.0196,1958
19.0413,2003
19.063,2064
19.0848,2165
19.1065,2116
19.1282,2029
19.15,2069
19.1717,1991
19.1934,2117
19.2152,2137
19.2369,2190
19.2586,2109
19.2804,2019
19.3021,2053
19.3238,2183
19.3456,1988
19.3673,2096
19.389,2109
19.4108,2035
19.4325,2032
19.4542,2089
19.476,2011
19.4977,2048
19.5194,2087
19.5412,2113
19.5629,1994
19.5846,2027
19.6064,2060
19.6281,2084
19.6498,2065
19.6716,2016
19.6933,1954
19.715,2037
19.7368,2038
19.7585,2063
19.7802,2023
19.8019,2105
19.8237,1997
19.8454,1985
19.8671,1967
19.8889,1986
19.9106,2074
19.9323,1972
19.9541,2014
19.9758,1960
19.9975,1993
20.0193,2047
20.041,2093
20.0627,2013
20.0845,2081
20.1062,2095
20.1279,2127
20.1497,2111
20.1714,2047
20.1931,2081
20.2149,2063
20.2366,2127
20.2583,2132
20.2801,2146
20.3018,2202
20.3235,2113
20.3453,2123
20.367,2074
20.3887,2118
20.4105,2075
20.4322,2037
20.4539,1981
20.4757,2129
20.4974,2076
20.5191,2098
20.5409,2088
20.5626,2093
20.5843,2143
20.6061,2078
20.6278,2097
20.6495,2025
20.6713,2149
20.693,2102
20.7147,2148
20.7365,2162
20.7582,2157
20.7799,2180
20.8017,2153
20.8234,2295
20.8451,2388
20.8669,2340
20.8886,2310
20.9103,2278
20.9321,2348
20.9538,2370
20.9755,2208
20.9973,2074
21.019,2306
21.0407,2161
21.0625,2179
21.0842,2157
21.1059,2056
21.1277,2056
21.1494,2123
21.1711,1987
21.1929,2030
21.2146,2107
21.2363,2001
21.2581,2119
21.2798,2062
21.3015,2113
21.3233,2068
21.345,2080
21.3667,2080
21.3884,1998
21.4102,2120
21.4319,2071
21.4536,2114
21.4754,2116
21.4971,2024
21.5188,2094
21.5406,2048
21.5623,2029
21.584,2027
21.6058,2045
21.6275,2066
21.6492,2016
21.671,2031
21.6927,1995
21.7144,2041
21.7362,1997
21.7579,1994
21.7796,2001
21.8014,2134
21.8231,1989
21.8448,2039
21.8666,2023
21.8883,2102
21.91,1977
21.9318,2051
21.9535,1980
21.9752,2012
21.997,2101
22.0187,2080
22.0404,2014
22.0622,2027
22.0839,2004
22.1056,2032
22.1274,2032
22.1491,2079
22.1708,1917
22.1926,2049
22.2143,2084
22.236,2070
22.2578,2040
22.2795,2195
22.3012,2112
22.323,2082
22.3447,2101
22.3664,2204
22.3882,2160
22.4099,2161
22.4316,2212
22.4534,2322
22.4751,2419
22.4968,2347
22.5186,2379
22.5403,2402
22.562,2451
22.5838,2466
22.6055,2462
22.6272,2641
22.649,2736
22.6707,2718
22.6924,2800
22.7142,2917
22.7359,3004
22.7576,3129
22.7794,3167
22.8011,3285
22.8228,3347
22.8446,3528
22.8663,3815
22.888,3921
22.9098,4291
22.9315,4719
22.9532,5160
22.9749,5384
22.9967,5381
23.0184,4927
23.0401,4420
23.0619,3858
23.0836,3322
23.1053,3077
23.1271,2881
23.1488,2878
23.1705,2923
23.1923,2836
23.214,2891
23.2357,2996
23.2575,3000
23.2792,2786
23.3009,2774
23.3227,2746
23.3444,2710
23.3661,2752
23.3879,2657
23.4096,2745
23.4313,2689
23.4531,2578
23.4748,2621
23.4965,2619
23.5183,2627
23.54,2687
23.5617,2653
23.5835,2823
23.6052,2715
23.6269,2937
23.6487,2878
23.6704,2836
23.6921,3047
23.7139,3109
23.7356,3279
23.7573,3576
23.7791,3753
23.8008,3921
23.8225,4101
23.8443,4152
23.866,4301
23.8877,4047
23.9095,3948
23.9312,3566
23.9529,3313
23.9747,3061
23.9964,2939
24.0181,2761
24.0399,2739
24.0616,2589
24.0833,2677
24.1051,2691
24.1268,2708
24.1485,2578
24.1703,2574
24.192,2493
24.2137,2589
24.2355,2614
24.2572,2486
24.2789,2580
24.3007,2631
24.3224,2587
24.3441,2595
24.3659,2688
24.3876,2650
24.4093,2793
24.4311,2603
24.4528,2732
24.4745,2589
24.4963,2655
24.518,2680
24.5397,2704
24.5615,2705
24.5832,2673
24.6049,2688
24.6266,2691
24.6484,2619
24.6701,2763
24.6918,2681
24.7136,2659
24.7353,2697
24.757,2784
24.7788,2597
24.8005,2837
24.8222,2685
24.844,2851
24.8657,2879
24.8874,3045
24.9092,3013
24.9309,3108
24.9526,3232
24.9744,3318
24.9961,3355
25.0178,3413
25.0396,3583
25.0613,3645
25.083,3782
25.1048,3781
25.1265,3793
25.1482,3941
25.17,3811
25.1917,3830
25.2134,3580
25.2352,3451
25.2569,3272
25.2786,3231
25.3004,2973
25.3221,2923
25.3438,2710
25.3656,2656
25.3873,2566
25.409,2549
25.4308,2597
25.4525,2485
25.4742,2459
25.496,2414
25.5177,2454
25.5394,2432
25.5612,2432
25.5829,2387
25.6046,2384
25.6264,2414
25.6481,2371
25.6698,2343
25.6916,2428
25.7133,2358
25.735,2335
25.7568,2374
25.7785,2382
25.8002,2422
25.822,2362
25.8437,2396
25.8654,2431
25.8872,2443
25.9089,2583
25.9306,2576
25.9524,2799
25.9741,2991
25.9958,3211
26.0176,3578
26.0393,3762
26.061,4207
26.0828,4330
26.1045,4179
26.1262,3854
26.148,3449
26.1697,2980
26.1914,2647
26.2131,2481
26.2349,2388
26.2566,2348
26.2783,2340
26.3001,2329
26.3218,2266
26.3435,2244
26.3653,2156
26.387,2220
26.4087,2213
26.4305,2143
26.4522,2150
26.4739,2221
26.4957,2196
26.5174,2271
26.5391,2195
26.5609,2208
26.5826,2170
26.6043,2247
26.6261,2171
26.6478,2137
26.6695,2239
26.6913,2236
26.713,2134
26.7347,2126
26.7565,2153
26.7782,2165
26.7999,2140
26.8217,2194
26.8434,2162
26.8651,2221
26.8869,2137
26.9086,2253
26.9303,2199
26.9521,2190
26.9738,2228
26.9955,2312
27.0173,2392
27.039,2400
27.0607,2394
27.0825,2275
27.1042,2277
27.1259,2307
27.1477,2280
27.1694,2397
27.1911,2326
27.2129,2241
27.2346,2312
27.2563,2234
27.2781,2328
27.2998,2234
27.3215,2363
27.3433,2248
27.365,2289
27.3867,2211
27.4085,2264
27.4302,2426
27.4519,2483
27.4737,2391
27.4954,2426
27.5171,2429
27.5389,2452
27.5606,2399
27.5823,2504
27.6041,2511
27.6258,2526
27.6475,2683
27.6693,2505
27.691,2541
27.7127,2564
27.7345,2703
27.7562,2741
27.7779,2753
27.7996,2823
27.8214,2691
27.8431,2649
27.8648,2589
27.8866,2619
27.9083,2513
27.93,2621
27.9518,2643
27.9735,2638
27.9952,2558
28.017,2601
28.0387,2730
28.0604,2745
28.0822,2599
28.1039,2636
28.1256,2718
28.1474,2628
28.1691,2641
28.1908,2819
28.2126,2628
28.2343,2709
28.256,2776
28.2778,2723
28.2995,2758
28.3212,2853
28.343,3062
28.3647,3065
28.3864,3134
28.4082,3299
28.4299,3475
28.4516,3564
28.4734,3614
28.4951,3622
28.5168,3900
28.5386,3801
28.5603,4011
28.582,4058
28.6038,4001
28.6255,4170
28.6472,4096
28.669,4020
28.6907,3775
28.7124,3688
28.7342,3531
28.7559,3262
28.7776,3255
28.7994,3131
28.8211,3089
28.8428,3063
28.8646,2925
28.8863,2855
28.908,2770
28.9298,2880
28.9515,2875
28.9732,2879
28.995,2743
29.0167,2745
29.0384,2645
29.0602,2730
29.0819,2678
29.1036,2638
29.1254,2602
29.1471,2561
29.1688,2495
29.1906,2419
29.2123,2375
29.234,2363
29.2558,2293
29.2775,2284
29.2992,2289
29.321,2338
29.3427,2360
29.3644,2369
29.3861,2272
29.4079,2287
29.4296,2305
29.4513,2330
29.4731,2266
29.4948,2240
29.5165,2398
29.5383,2320
29.56,2370
29.5817,2253
29.6035,2268
29.6252,2251
29.6469,2198
29.6687,2218
29.6904,2235
29.7121,2190
29.7339,2101
29.7556,2219
29.7773,2258
29.7991,2290
29.8208,2229
29.8425,2219
29.8643,2216
29.886,2217
29.9077,2316
29.9295,2202
29.9512,2168
29.9729,2195
29.9947,2231