File: clay-plate-XRD-S2-2022/ENVT4461 S-16 Mg+Gly EY.csv
"Angle","Counts"
3.00243,26542
3.02417,26193
3.0459,25612
3.06763,25006
3.08936,24428
3.1111,23785
3.13283,23229
3.15456,22993
3.1763,22604
3.19803,22045
3.21976,21796
3.24149,21357
3.26323,21068
3.28496,20399
3.30669,20405
3.32843,19719
3.35016,19441
3.37189,19312
3.39363,18866
3.41536,18539
3.43709,18106
3.45882,17991
3.48056,17691
3.50229,17448
3.52402,17205
3.54576,17044
3.56749,16835
3.58922,16455
3.61095,16242
3.63269,16179
3.65442,16019
3.67615,15826
3.69789,15769
3.71962,15640
3.74135,15197
3.76308,14950
3.78482,14857
3.80655,14808
3.82828,14751
3.85002,14506
3.87175,14457
3.89348,13932
3.91521,14058
3.93695,13852
3.95868,13913
3.98041,13768
4.00215,13406
4.02388,13618
4.04561,13400
4.06734,13356
4.08908,13201
4.11081,13196
4.13254,12984
4.15428,12851
4.17601,12972
4.19774,12773
4.21947,12550
4.24121,12745
4.26294,12599
4.28467,12479
4.30641,12503
4.32814,12287
4.34987,12398
4.3716,12411
4.39334,12306
4.41507,12360
4.4368,12409
4.45854,12107
4.48027,12299
4.502,11958
4.52373,12101
4.54547,12055
4.5672,11857
4.58893,11758
4.61067,12009
4.6324,12188
4.65413,11896
4.67586,11896
4.6976,11792
4.71933,12060
4.74106,12029
4.7628,12074
4.78453,11936
4.80626,12119
4.828,11957
4.84973,12031
4.87146,12149
4.89319,12217
4.91493,12175
4.93666,12255
4.95839,12259
4.98013,11990
5.00186,12181
5.02359,12287
5.04532,12340
5.06706,12340
5.08879,12398
5.11052,12404
5.13226,12333
5.15399,12367
5.17572,12512
5.19745,12292
5.21919,12796
5.24092,12551
5.26265,12534
5.28439,12724
5.30612,12376
5.32785,12595
5.34958,12941
5.37132,12745
5.39305,12655
5.41478,12892
5.43652,12908
5.45825,12915
5.47998,12868
5.50171,13136
5.52345,12980
5.54518,13094
5.56691,12929
5.58865,13031
5.61038,13233
5.63211,13041
5.65384,13069
5.67558,13294
5.69731,13128
5.71904,13316
5.74078,13236
5.76251,13420
5.78424,13382
5.80597,13519
5.82771,13584
5.84944,13449
5.87117,13597
5.89291,13770
5.91464,13837
5.93637,13741
5.9581,13879
5.97984,13874
6.00157,14005
6.0233,13924
6.04504,13948
6.06677,14058
6.0885,13874
6.11024,13978
6.13197,14123
6.1537,13998
6.17543,14118
6.19717,14060
6.2189,14109
6.24063,14482
6.26237,14298
6.2841,14222
6.30583,14237
6.32756,14019
6.3493,14134
6.37103,14115
6.39276,14371
6.4145,14211
6.43623,14265
6.45796,14354
6.47969,14083
6.50143,14198
6.52316,14321
6.54489,13973
6.56663,14247
6.58836,14246
6.61009,14334
6.63182,14222
6.65356,14098
6.67529,14428
6.69702,14061
6.71876,14187
6.74049,14024
6.76222,14297
6.78395,13830
6.80569,14228
6.82742,14037
6.84915,14001
6.87089,14109
6.89262,13930
6.91435,13843
6.93608,13796
6.95782,13918
6.97955,13659
7.00128,13614
7.02302,13545
7.04475,13484
7.06648,13352
7.08821,13590
7.10995,13566
7.13168,13293
7.15341,13572
7.17515,13234
7.19688,13236
7.21861,13192
7.24034,13353
7.26208,13069
7.28381,13093
7.30554,12950
7.32728,12923
7.34901,12838
7.37074,12967
7.39247,12924
7.41421,12746
7.43594,12827
7.45767,12790
7.47941,12586
7.50114,12443
7.52287,12492
7.54461,12514
7.56634,12402
7.58807,12372
7.6098,12184
7.63154,12151
7.65327,12194
7.675,11988
7.69674,12148
7.71847,11974
7.7402,11874
7.76193,11998
7.78367,11908
7.8054,11646
7.82713,11913
7.84887,11926
7.8706,11749
7.89233,11591
7.91406,11564
7.9358,11570
7.95753,11507
7.97926,11625
8.001,11375
8.02273,11595
8.04446,11462
8.06619,11417
8.08793,11419
8.10966,11155
8.13139,11217
8.15313,11254
8.17486,11246
8.19659,11107
8.21832,10933
8.24006,11042
8.26179,10991
8.28352,11030
8.30526,10924
8.32699,10891
8.34872,10766
8.37045,10812
8.39219,10520
8.41392,10843
8.43565,10668
8.45739,10618
8.47912,10633
8.50085,10640
8.52258,10452
8.54432,10414
8.56605,10443
8.58778,10499
8.60952,10363
8.63125,10359
8.65298,10424
8.67471,10245
8.69645,10261
8.71818,10222
8.73991,10199
8.76165,10169
8.78338,10201
8.80511,10017
8.82685,10254
8.84858,10177
8.87031,10074
8.89204,10318
8.91378,10203
8.93551,10175
8.95724,10171
8.97898,10181
9.00071,10186
9.02244,10190
9.04417,10208
9.06591,10076
9.08764,10089
9.10937,10191
9.13111,9976
9.15284,10094
9.17457,10206
9.1963,9980
9.21804,10174
9.23977,10137
9.2615,10018
9.28324,10214
9.30497,10210
9.3267,10076
9.34843,10003
9.37017,10078
9.3919,10283
9.41363,10250
9.43537,10206
9.4571,10384
9.47883,10232
9.50056,10394
9.5223,10367
9.54403,10404
9.56576,10509
9.5875,10547
9.60923,10435
9.63096,10675
9.65269,10543
9.67443,10610
9.69616,10853
9.71789,10908
9.73963,11111
9.76136,10980
9.78309,11053
9.80482,11225
9.82656,10998
9.84829,11379
9.87002,11170
9.89176,11201
9.91349,10766
9.93522,11025
9.95695,10728
9.97869,10498
10.0004,10516
10.0222,10376
10.0439,10129
10.0656,9852
10.0874,9820
10.1091,9607
10.1308,9689
10.1526,9483
10.1743,9497
10.196,9332
10.2177,9378
10.2395,9184
10.2612,9000
10.2829,9088
10.3047,9067
10.3264,8935
10.3481,8748
10.3699,8803
10.3916,8878
10.4133,8832
10.4351,8686
10.4568,8675
10.4785,8626
10.5003,8676
10.522,8686
10.5437,8471
10.5655,8536
10.5872,8571
10.6089,8609
10.6307,8452
10.6524,8425
10.6741,8346
10.6959,8203
10.7176,8229
10.7393,8171
10.7611,8238
10.7828,8159
10.8045,7970
10.8263,8162
10.848,8056
10.8697,8074
10.8915,7961
10.9132,7969
10.9349,7915
10.9567,8019
10.9784,7918
11.0001,7861
11.0219,7830
11.0436,7817
11.0653,7888
11.0871,7938
11.1088,7936
11.1305,7761
11.1523,7682
11.174,7693
11.1957,7957
11.2175,7812
11.2392,7731
11.2609,7777
11.2827,7885
11.3044,7746
11.3261,7707
11.3479,7597
11.3696,7685
11.3913,7799
11.4131,7743
11.4348,7878
11.4565,7764
11.4783,7806
11.5,7691
11.5217,7673
11.5435,7650
11.5652,7766
11.5869,7576
11.6087,7735
11.6304,7657
11.6521,7740
11.6739,7714
11.6956,7691
11.7173,7678
11.7391,7636
11.7608,7830
11.7825,7575
11.8042,7613
11.826,7914
11.8477,7949
11.8694,7754
11.8912,7598
11.9129,7830
11.9346,7799
11.9564,7715
11.9781,7873
11.9998,7819
12.0216,7812
12.0433,7946
12.065,7954
12.0868,8054
12.1085,7755
12.1302,7818
12.152,7961
12.1737,8006
12.1954,7984
12.2172,7978
12.2389,8007
12.2606,8024
12.2824,8232
12.3041,8131
12.3258,8209
12.3476,8025
12.3693,8230
12.391,8233
12.4128,8515
12.4345,8342
12.4562,8238
12.478,8329
12.4997,8377
12.5214,8493
12.5432,8528
12.5649,8655
12.5866,8821
12.6084,8699
12.6301,8834
12.6518,8809
12.6736,8890
12.6953,8927
12.717,9282
12.7388,9086
12.7605,9335
12.7822,9280
12.804,9172
12.8257,9349
12.8474,9394
12.8692,9390
12.8909,9624
12.9126,9599
12.9344,9670
12.9561,9991
12.9778,10063
12.9996,10265
13.0213,10137
13.043,10314
13.0648,10551
13.0865,10720
13.1082,10948
13.13,10970
13.1517,11453
13.1734,11469
13.1952,11765
13.2169,11859
13.2386,12346
13.2604,12476
13.2821,12754
13.3038,13258
13.3256,13436
13.3473,13889
13.369,14338
13.3907,14738
13.4125,15201
13.4342,15795
13.4559,16202
13.4777,16671
13.4994,17557
13.5211,18456
13.5429,19079
13.5646,20021
13.5863,20950
13.6081,21883
13.6298,23139
13.6515,24378
13.6733,25854
13.695,27405
13.7167,29006
13.7385,30959
13.7602,32669
13.7819,34725
13.8037,36647
13.8254,38708
13.8471,40772
13.8689,42945
13.8906,44359
13.9123,46015
13.9341,46548
13.9558,47520
13.9775,46986
13.9993,45568
14.021,43085
14.0427,39825
14.0645,36285
14.0862,32397
14.1079,29054
14.1297,25440
14.1514,22591
14.1731,20327
14.1949,18451
14.2166,16870
14.2383,15681
14.2601,14375
14.2818,13430
14.3035,12794
14.3253,11887
14.347,11297
14.3687,10592
14.3905,10186
14.4122,9636
14.4339,9113
14.4557,8991
14.4774,8553
14.4991,8218
14.5209,7897
14.5426,7741
14.5643,7547
14.5861,7405
14.6078,7056
14.6295,6806
14.6513,6607
14.673,6634
14.6947,6424
14.7165,6339
14.7382,6114
14.7599,6031
14.7817,5984
14.8034,5740
14.8251,5581
14.8469,5695
14.8686,5535
14.8903,5238
14.9121,5280
14.9338,5231
14.9555,5121
14.9773,5148
14.999,4935
15.0207,4871
15.0424,4981
15.0642,4848
15.0859,4709
15.1076,4768
15.1294,4830
15.1511,4534
15.1728,4601
15.1946,4471
15.2163,4574
15.238,4472
15.2598,4593
15.2815,4384
15.3032,4426
15.325,4423
15.3467,4200
15.3684,4191
15.3902,4338
15.4119,4163
15.4336,4126
15.4554,4047
15.4771,4083
15.4988,4080
15.5206,3985
15.5423,4077
15.564,3971
15.5858,3956
15.6075,3976
15.6292,3833
15.651,3873
15.6727,3878
15.6944,3836
15.7162,3645
15.7379,3771
15.7596,3844
15.7814,3927
15.8031,3742
15.8248,3799
15.8466,3633
15.8683,3752
15.89,3755
15.9118,3686
15.9335,3785
15.9552,3629
15.977,3639
15.9987,3734
16.0204,3703
16.0422,3666
16.0639,3793
16.0856,3588
16.1074,3611
16.1291,3722
16.1508,3601
16.1726,3516
16.1943,3534
16.216,3497
16.2378,3535
16.2595,3516
16.2812,3420
16.303,3330
16.3247,3429
16.3464,3374
16.3682,3398
16.3899,3396
16.4116,3373
16.4334,3423
16.4551,3238
16.4768,3360
16.4986,3241
16.5203,3231
16.542,3152
16.5638,3241
16.5855,3211
16.6072,3263
16.6289,3132
16.6507,3179
16.6724,3261
16.6941,3110
16.7159,3065
16.7376,3165
16.7593,3096
16.7811,3047
16.8028,3077
16.8245,3071
16.8463,3042
16.868,3111
16.8897,3109
16.9115,3041
16.9332,2907
16.9549,3010
16.9767,3088
16.9984,3063
17.0201,3029
17.0419,3124
17.0636,3079
17.0853,3043
17.1071,2958
17.1288,3164
17.1505,3018
17.1723,2979
17.194,2999
17.2157,2976
17.2375,2982
17.2592,2851
17.2809,2965
17.3027,2999
17.3244,2931
17.3461,2894
17.3679,2896
17.3896,3032
17.4113,2838
17.4331,2915
17.4548,2933
17.4765,2849
17.4983,2900
17.52,2887
17.5417,2851
17.5635,2879
17.5852,2860
17.6069,2945
17.6287,2927
17.6504,2795
17.6721,2859
17.6939,2857
17.7156,2874
17.7373,2875
17.7591,2908
17.7808,2946
17.8025,2910
17.8243,2957
17.846,2940
17.8677,2890
17.8895,2921
17.9112,2869
17.9329,2898
17.9547,2894
17.9764,2823
17.9981,2818
18.0199,2830
18.0416,2810
18.0633,2864
18.0851,2775
18.1068,2830
18.1285,2786
18.1503,2866
18.172,2801
18.1937,2831
18.2154,2858
18.2372,2682
18.2589,2807
18.2806,2830
18.3024,2800
18.3241,2827
18.3458,2808
18.3676,2788
18.3893,2750
18.411,2775
18.4328,2814
18.4545,2802
18.4762,2748
18.498,2798
18.5197,2874
18.5414,2763
18.5632,2809
18.5849,2884
18.6066,2893
18.6284,2829
18.6501,2887
18.6718,2834
18.6936,2870
18.7153,2931
18.737,2848
18.7588,2906
18.7805,2777
18.8022,2855
18.824,2719
18.8457,2795
18.8674,2776
18.8892,2838
18.9109,2747
18.9326,2726
18.9544,2777
18.9761,2883
18.9978,2812
19.0196,2724
19.0413,2964
19.063,2792
19.0848,2838
19.1065,2796
19.1282,2933
19.15,2724
19.1717,2807
19.1934,2798
19.2152,2886
19.2369,2757
19.2586,2818
19.2804,2890
19.3021,2744
19.3238,2780
19.3456,2865
19.3673,2869
19.389,2859
19.4108,2810
19.4325,2847
19.4542,2833
19.476,2748
19.4977,2865
19.5194,2753
19.5412,2796
19.5629,2937
19.5846,2974
19.6064,2925
19.6281,2956
19.6498,2788
19.6716,2840
19.6933,2832
19.715,2872
19.7368,2964
19.7585,2967
19.7802,2939
19.8019,2922
19.8237,2981
19.8454,3030
19.8671,3013
19.8889,3018
19.9106,2961
19.9323,2954
19.9541,2996
19.9758,3036
19.9975,2979
20.0193,3047
20.041,3184
20.0627,3030
20.0845,3228
20.1062,3255
20.1279,3232
20.1497,3248
20.1714,3340
20.1931,3389
20.2149,3419
20.2366,3397
20.2583,3470
20.2801,3427
20.3018,3428
20.3235,3453
20.3453,3401
20.367,3321
20.3887,3192
20.4105,3282
20.4322,3200
20.4539,3128
20.4757,3039
20.4974,3054
20.5191,2951
20.5409,3007
20.5626,2980
20.5843,2949
20.6061,2966
20.6278,2843
20.6495,2897
20.6713,3011
20.693,3106
20.7147,2889
20.7365,2947
20.7582,2997
20.7799,3064
20.8017,2940
20.8234,2984
20.8451,2875
20.8669,3040
20.8886,3015
20.9103,2966
20.9321,2943
20.9538,3013
20.9755,2973
20.9973,2786
21.019,2827
21.0407,2883
21.0625,2742
21.0842,2736
21.1059,2744
21.1277,2695
21.1494,2730
21.1711,2749
21.1929,2730
21.2146,2726
21.2363,2685
21.2581,2748
21.2798,2801
21.3015,2534
21.3233,2728
21.345,2628
21.3667,2701
21.3884,2744
21.4102,2659
21.4319,2612
21.4536,2667
21.4754,2631
21.4971,2699
21.5188,2638
21.5406,2615
21.5623,2674
21.584,2558
21.6058,2686
21.6275,2589
21.6492,2541
21.671,2547
21.6927,2571
21.7144,2621
21.7362,2573
21.7579,2611
21.7796,2626
21.8014,2526
21.8231,2529
21.8448,2521
21.8666,2525
21.8883,2553
21.91,2516
21.9318,2471
21.9535,2604
21.9752,2536
21.997,2535
22.0187,2460
22.0404,2478
22.0622,2537
22.0839,2523
22.1056,2556
22.1274,2644
22.1491,2678
22.1708,2456
22.1926,2661
22.2143,2713
22.236,2613
22.2578,2607
22.2795,2616
22.3012,2675
22.323,2686
22.3447,2756
22.3664,2673
22.3882,2718
22.4099,2746
22.4316,2802
22.4534,2792
22.4751,2911
22.4968,2829
22.5186,2844
22.5403,2851
22.562,2908
22.5838,2897
22.6055,2911
22.6272,2940
22.649,3084
22.6707,3050
22.6924,3006
22.7142,3020
22.7359,3119
22.7576,2955
22.7794,2937
22.8011,3074
22.8228,3045
22.8446,3064
22.8663,3031
22.888,3007
22.9098,3090
22.9315,2901
22.9532,2925
22.9749,2858
22.9967,3000
23.0184,2926
23.0401,2967
23.0619,2870
23.0836,2881
23.1053,2862
23.1271,2850
23.1488,2815
23.1705,2831
23.1923,2883
23.214,2832
23.2357,3030
23.2575,2792
23.2792,2858
23.3009,2844
23.3227,2775
23.3444,2839
23.3661,2828
23.3879,2836
23.4096,2763
23.4313,2826
23.4531,2797
23.4748,2903
23.4965,2855
23.5183,2868
23.54,2878
23.5617,2721
23.5835,2872
23.6052,2778
23.6269,2850
23.6487,2880
23.6704,2875
23.6921,2871
23.7139,3021
23.7356,2933
23.7573,3022
23.7791,2995
23.8008,3066
23.8225,3154
23.8443,3051
23.866,3057
23.8877,3290
23.9095,3186
23.9312,3041
23.9529,3018
23.9747,3008
23.9964,2901
24.0181,2799
24.0399,2822
24.0616,2856
24.0833,2872
24.1051,2876
24.1268,2804
24.1485,2728
24.1703,2698
24.192,2807
24.2137,2826
24.2355,2826
24.2572,2787
24.2789,2830
24.3007,2868
24.3224,2862
24.3441,2836
24.3659,2865
24.3876,2781
24.4093,2833
24.4311,2827
24.4528,2859
24.4745,2900
24.4963,2872
24.518,2824
24.5397,2792
24.5615,2813
24.5832,2879
24.6049,2746
24.6266,2828
24.6484,2835
24.6701,2787
24.6918,2793
24.7136,2870
24.7353,2848
24.757,2758
24.7788,2798
24.8005,2724
24.8222,2818
24.844,2730
24.8657,2736
24.8874,2760
24.9092,2798
24.9309,2834
24.9526,2856
24.9744,2827
24.9961,2770
25.0178,2813
25.0396,2890
25.0613,2814
25.083,2870
25.1048,2901
25.1265,3012
25.1482,2883
25.17,2936
25.1917,2856
25.2134,2983
25.2352,2830
25.2569,2946
25.2786,2926
25.3004,2968
25.3221,2802
25.3438,2847
25.3656,2871
25.3873,2765
25.409,2736
25.4308,2769
25.4525,2827
25.4742,2749
25.496,2683
25.5177,2712
25.5394,2780
25.5612,2813
25.5829,2873
25.6046,2905
25.6264,2934
25.6481,2824
25.6698,2875
25.6916,2868
25.7133,2881
25.735,2961
25.7568,2835
25.7785,3018
25.8002,2957
25.822,2925
25.8437,2887
25.8654,2913
25.8872,2991
25.9089,2977
25.9306,2856
25.9524,2951
25.9741,2895
25.9958,2935
26.0176,2847
26.0393,2896
26.061,2837
26.0828,2763
26.1045,2855
26.1262,2807
26.148,2896
26.1697,2866
26.1914,2956
26.2131,2979
26.2349,2868
26.2566,2953
26.2783,2925
26.3001,2983
26.3218,2891
26.3435,2877
26.3653,3014
26.387,2929
26.4087,2952
26.4305,3005
26.4522,3045
26.4739,3023
26.4957,2932
26.5174,2992
26.5391,3086
26.5609,2984
26.5826,3025
26.6043,3112
26.6261,3175
26.6478,2973
26.6695,3026
26.6913,3047
26.713,3176
26.7347,3143
26.7565,3154
26.7782,3126
26.7999,3070
26.8217,3214
26.8434,3118
26.8651,3209
26.8869,3242
26.9086,3162
26.9303,3288
26.9521,3396
26.9738,3281
26.9955,3405
27.0173,3382
27.039,3526
27.0607,3504
27.0825,3506
27.1042,3527
27.1259,3517
27.1477,3564
27.1694,3523
27.1911,3608
27.2129,3353
27.2346,3557
27.2563,3668
27.2781,3685
27.2998,3614
27.3215,3813
27.3433,3653
27.365,3700
27.3867,3916
27.4085,3845
27.4302,3885
27.4519,4052
27.4737,4136
27.4954,4052
27.5171,4054
27.5389,4238
27.5606,4460
27.5823,4288
27.6041,4343
27.6258,4571
27.6475,4410
27.6693,4680
27.691,4671
27.7127,4738
27.7345,4900
27.7562,4904
27.7779,5020
27.7996,5106
27.8214,5292
27.8431,5385
27.8648,5584
27.8866,5654
27.9083,5706
27.93,5875
27.9518,6156
27.9735,6224
27.9952,6443
28.017,6812
28.0387,6848
28.0604,7208
28.0822,7247
28.1039,7784
28.1256,7941
28.1474,8271
28.1691,8757
28.1908,9067
28.2126,9469
28.2343,10170
28.256,10558
28.2778,11071
28.2995,11802
28.3212,12855
28.343,13335
28.3647,14573
28.3864,15652
28.4082,17096
28.4299,18534
28.4516,20122
28.4734,21841
28.4951,23680
28.5168,25711
28.5386,27841
28.5603,29320
28.582,30756
28.6038,31821
28.6255,31547
28.6472,30871
28.669,29493
28.6907,27694
28.7124,25456
28.7342,23542
28.7559,21732
28.7776,19842
28.7994,18216
28.8211,17005
28.8428,16016
28.8646,14864
28.8863,14237
28.908,13329
28.9298,12701
28.9515,12270
28.9732,11536
28.995,11349
29.0167,10846
29.0384,10685
29.0602,10291
29.0819,9914
29.1036,9381
29.1254,9181
29.1471,9173
29.1688,8890
29.1906,8712
29.2123,8421
29.234,8145
29.2558,8101
29.2775,7957
29.2992,7679
29.321,7570
29.3427,7564
29.3644,7513
29.3861,7023
29.4079,7130
29.4296,7177
29.4513,6967
29.4731,6733
29.4948,6794
29.5165,6712
29.5383,6644
29.56,6476
29.5817,6420
29.6035,6428
29.6252,6419
29.6469,6173
29.6687,6212
29.6904,6250
29.7121,6133
29.7339,6120
29.7556,6032
29.7773,6057
29.7991,5941
29.8208,5962
29.8425,5874
29.8643,5897
29.886,5866
29.9077,5859
29.9295,5859
29.9512,5801
29.9729,5794
29.9947,5629