File: clay-plate-XRD-S2-2022/ENVT4461 S-12 Heated-550.csv
"Angle","Counts"
3.00243,25861
3.02417,25134
3.0459,24555
3.06763,23931
3.08936,23579
3.1111,23238
3.13283,22941
3.15456,22133
3.1763,21895
3.19803,21497
3.21976,20978
3.24149,20781
3.26323,20232
3.28496,19850
3.30669,19695
3.32843,19135
3.35016,18769
3.37189,18741
3.39363,18273
3.41536,17903
3.43709,17597
3.45882,17208
3.48056,16923
3.50229,16584
3.52402,16519
3.54576,16189
3.56749,15863
3.58922,15752
3.61095,15520
3.63269,15441
3.65442,14989
3.67615,14783
3.69789,14472
3.71962,14271
3.74135,14129
3.76308,13773
3.78482,13587
3.80655,13481
3.82828,13238
3.85002,12884
3.87175,12876
3.89348,12760
3.91521,12342
3.93695,12110
3.95868,12190
3.98041,11856
4.00215,11622
4.02388,11531
4.04561,11466
4.06734,11354
4.08908,11053
4.11081,11058
4.13254,10868
4.15428,10708
4.17601,10621
4.19774,10426
4.21947,10500
4.24121,10121
4.26294,9994
4.28467,9933
4.30641,9918
4.32814,9587
4.34987,9567
4.3716,9404
4.39334,9328
4.41507,9166
4.4368,9091
4.45854,9140
4.48027,9114
4.502,8609
4.52373,8709
4.54547,8531
4.5672,8456
4.58893,8468
4.61067,8154
4.6324,8373
4.65413,8280
4.67586,8101
4.6976,8074
4.71933,8059
4.74106,7886
4.7628,7846
4.78453,7891
4.80626,7842
4.828,7666
4.84973,7573
4.87146,7401
4.89319,7412
4.91493,7359
4.93666,7349
4.95839,7257
4.98013,7271
5.00186,7002
5.02359,7027
5.04532,7124
5.06706,7108
5.08879,6854
5.11052,6862
5.13226,6974
5.15399,6914
5.17572,6784
5.19745,6732
5.21919,6617
5.24092,6722
5.26265,6607
5.28439,6643
5.30612,6631
5.32785,6605
5.34958,6561
5.37132,6627
5.39305,6412
5.41478,6491
5.43652,6416
5.45825,6482
5.47998,6244
5.50171,6380
5.52345,6431
5.54518,6320
5.56691,6452
5.58865,6383
5.61038,6139
5.63211,6317
5.65384,6328
5.67558,6285
5.69731,6247
5.71904,6163
5.74078,6216
5.76251,6233
5.78424,6441
5.80597,6234
5.82771,6284
5.84944,6512
5.87117,6261
5.89291,6231
5.91464,6170
5.93637,6247
5.9581,6258
5.97984,6252
6.00157,6104
6.0233,6268
6.04504,6258
6.06677,6334
6.0885,6225
6.11024,6404
6.13197,6064
6.1537,6466
6.17543,6287
6.19717,6457
6.2189,6270
6.24063,6311
6.26237,6259
6.2841,6371
6.30583,6320
6.32756,6383
6.3493,6483
6.37103,6332
6.39276,6440
6.4145,6474
6.43623,6394
6.45796,6331
6.47969,6391
6.50143,6435
6.52316,6413
6.54489,6420
6.56663,6382
6.58836,6464
6.61009,6380
6.63182,6470
6.65356,6334
6.67529,6378
6.69702,6423
6.71876,6390
6.74049,6456
6.76222,6582
6.78395,6417
6.80569,6471
6.82742,6517
6.84915,6570
6.87089,6568
6.89262,6569
6.91435,6607
6.93608,6501
6.95782,6474
6.97955,6471
7.00128,6468
7.02302,6700
7.04475,6687
7.06648,6619
7.08821,6772
7.10995,6656
7.13168,6539
7.15341,6723
7.17515,6622
7.19688,6596
7.21861,6790
7.24034,6730
7.26208,6770
7.28381,6885
7.30554,6747
7.32728,6709
7.34901,6766
7.37074,6853
7.39247,6736
7.41421,7005
7.43594,6763
7.45767,6788
7.47941,6854
7.50114,6728
7.52287,6957
7.54461,7052
7.56634,6882
7.58807,6921
7.6098,6826
7.63154,6935
7.65327,6926
7.675,6837
7.69674,6927
7.71847,6967
7.7402,6859
7.76193,7055
7.78367,7194
7.8054,7095
7.82713,7055
7.84887,6947
7.8706,7087
7.89233,7183
7.91406,7147
7.9358,7138
7.95753,7047
7.97926,7002
8.001,7257
8.02273,7097
8.04446,6987
8.06619,7291
8.08793,7091
8.10966,7311
8.13139,7127
8.15313,7255
8.17486,7281
8.19659,7385
8.21832,7298
8.24006,7298
8.26179,7205
8.28352,7424
8.30526,7326
8.32699,7412
8.34872,7498
8.37045,7410
8.39219,7357
8.41392,7496
8.43565,7341
8.45739,7478
8.47912,7515
8.50085,7493
8.52258,7504
8.54432,7435
8.56605,7702
8.58778,7600
8.60952,7747
8.63125,7621
8.65298,7556
8.67471,7602
8.69645,7705
8.71818,7637
8.73991,7810
8.76165,7672
8.78338,7806
8.80511,7674
8.82685,7727
8.84858,7925
8.87031,7860
8.89204,7819
8.91378,7969
8.93551,7880
8.95724,7731
8.97898,7931
9.00071,7907
9.02244,7860
9.04417,8004
9.06591,8007
9.08764,7934
9.10937,7814
9.13111,8119
9.15284,8093
9.17457,8217
9.1963,8029
9.21804,8029
9.23977,8269
9.2615,8125
9.28324,8341
9.30497,8262
9.3267,8226
9.34843,8354
9.37017,8386
9.3919,8204
9.41363,8234
9.43537,8598
9.4571,8459
9.47883,8408
9.50056,8567
9.5223,8575
9.54403,8750
9.56576,8820
9.5875,8711
9.60923,8672
9.63096,8844
9.65269,8926
9.67443,8907
9.69616,8832
9.71789,9136
9.73963,9339
9.76136,9354
9.78309,9414
9.80482,9401
9.82656,9271
9.84829,9478
9.87002,9543
9.89176,9509
9.91349,9455
9.93522,9481
9.95695,9117
9.97869,9042
10.0004,9034
10.0222,8627
10.0439,8821
10.0656,8632
10.0874,8424
10.1091,8572
10.1308,8539
10.1526,8225
10.1743,8319
10.196,8453
10.2177,7991
10.2395,8030
10.2612,7864
10.2829,8043
10.3047,8045
10.3264,7818
10.3481,7990
10.3699,7908
10.3916,7753
10.4133,7665
10.4351,7726
10.4568,7645
10.4785,7655
10.5003,7513
10.522,7378
10.5437,7573
10.5655,7400
10.5872,7379
10.6089,7448
10.6307,7242
10.6524,7198
10.6741,7128
10.6959,7000
10.7176,6880
10.7393,6903
10.7611,6783
10.7828,6776
10.8045,6666
10.8263,6696
10.848,6527
10.8697,6387
10.8915,6414
10.9132,6200
10.9349,6214
10.9567,6240
10.9784,6182
11.0001,5991
11.0219,5919
11.0436,5874
11.0653,5800
11.0871,5732
11.1088,5847
11.1305,5675
11.1523,5729
11.174,5618
11.1957,5545
11.2175,5508
11.2392,5431
11.2609,5387
11.2827,5240
11.3044,5303
11.3261,5197
11.3479,5070
11.3696,5279
11.3913,4899
11.4131,5066
11.4348,5069
11.4565,4964
11.4783,4875
11.5,4679
11.5217,4780
11.5435,4760
11.5652,4786
11.5869,4840
11.6087,4530
11.6304,4454
11.6521,4610
11.6739,4474
11.6956,4420
11.7173,4370
11.7391,4343
11.7608,4198
11.7825,4404
11.8042,4358
11.826,4278
11.8477,4170
11.8694,4245
11.8912,4145
11.9129,4267
11.9346,4210
11.9564,4051
11.9781,4067
11.9998,3992
12.0216,3982
12.0433,3911
12.065,3879
12.0868,3828
12.1085,3866
12.1302,3806
12.152,3864
12.1737,3748
12.1954,3736
12.2172,3771
12.2389,3752
12.2606,3755
12.2824,3712
12.3041,3542
12.3258,3645
12.3476,3675
12.3693,3659
12.391,3621
12.4128,3765
12.4345,3659
12.4562,3459
12.478,3660
12.4997,3529
12.5214,3594
12.5432,3533
12.5649,3440
12.5866,3424
12.6084,3460
12.6301,3323
12.6518,3421
12.6736,3379
12.6953,3378
12.717,3319
12.7388,3345
12.7605,3279
12.7822,3277
12.804,3299
12.8257,3359
12.8474,3263
12.8692,3274
12.8909,3246
12.9126,3307
12.9344,3197
12.9561,3248
12.9778,3242
12.9996,3303
13.0213,3194
13.043,3318
13.0648,3204
13.0865,3211
13.1082,3198
13.13,3128
13.1517,3078
13.1734,3089
13.1952,3154
13.2169,3140
13.2386,3091
13.2604,3091
13.2821,3198
13.3038,2996
13.3256,3116
13.3473,3103
13.369,3150
13.3907,3096
13.4125,3037
13.4342,2992
13.4559,3063
13.4777,3121
13.4994,3097
13.5211,3073
13.5429,2993
13.5646,3173
13.5863,3083
13.6081,3098
13.6298,3059
13.6515,3076
13.6733,2862
13.695,3077
13.7167,3017
13.7385,3061
13.7602,3101
13.7819,3059
13.8037,2944
13.8254,2921
13.8471,2984
13.8689,3001
13.8906,2925
13.9123,2962
13.9341,2984
13.9558,2879
13.9775,3014
13.9993,2974
14.021,2916
14.0427,2991
14.0645,2947
14.0862,2982
14.1079,2965
14.1297,2951
14.1514,2878
14.1731,2957
14.1949,2940
14.2166,2900
14.2383,2894
14.2601,2852
14.2818,3008
14.3035,2881
14.3253,2890
14.347,2831
14.3687,2963
14.3905,2893
14.4122,2929
14.4339,2933
14.4557,2866
14.4774,2793
14.4991,2914
14.5209,2940
14.5426,2862
14.5643,2858
14.5861,2955
14.6078,2733
14.6295,2792
14.6513,2887
14.673,2940
14.6947,2956
14.7165,2899
14.7382,2893
14.7599,2852
14.7817,2831
14.8034,2966
14.8251,2938
14.8469,2926
14.8686,2887
14.8903,2920
14.9121,2927
14.9338,2988
14.9555,2877
14.9773,2886
14.999,2895
15.0207,2876
15.0424,2784
15.0642,2888
15.0859,2839
15.1076,2833
15.1294,2857
15.1511,2777
15.1728,2783
15.1946,2857
15.2163,2788
15.238,2849
15.2598,2962
15.2815,2860
15.3032,2852
15.325,2943
15.3467,2815
15.3684,2858
15.3902,2884
15.4119,2873
15.4336,2898
15.4554,2822
15.4771,2864
15.4988,2864
15.5206,2922
15.5423,2841
15.564,2790
15.5858,2880
15.6075,2811
15.6292,2813
15.651,2821
15.6727,2717
15.6944,2842
15.7162,2829
15.7379,2839
15.7596,2734
15.7814,2853
15.8031,2865
15.8248,2765
15.8466,2799
15.8683,2901
15.89,2831
15.9118,2715
15.9335,2742
15.9552,2819
15.977,2830
15.9987,2866
16.0204,2769
16.0422,2828
16.0639,2806
16.0856,2847
16.1074,2811
16.1291,2815
16.1508,2709
16.1726,2825
16.1943,2841
16.216,2798
16.2378,2875
16.2595,3006
16.2812,2819
16.303,2822
16.3247,2808
16.3464,2749
16.3682,2798
16.3899,2737
16.4116,2896
16.4334,2770
16.4551,2755
16.4768,2715
16.4986,2752
16.5203,2814
16.542,2874
16.5638,2783
16.5855,2698
16.6072,2814
16.6289,2832
16.6507,2814
16.6724,2784
16.6941,2846
16.7159,2726
16.7376,2806
16.7593,2744
16.7811,2824
16.8028,2736
16.8245,2757
16.8463,2801
16.868,2842
16.8897,2746
16.9115,2817
16.9332,2813
16.9549,2740
16.9767,2795
16.9984,2801
17.0201,2778
17.0419,2894
17.0636,2721
17.0853,2702
17.1071,2901
17.1288,2789
17.1505,2763
17.1723,2740
17.194,2781
17.2157,2733
17.2375,2827
17.2592,2813
17.2809,2816
17.3027,2921
17.3244,2856
17.3461,2759
17.3679,2822
17.3896,2833
17.4113,2805
17.4331,2775
17.4548,2756
17.4765,2817
17.4983,2755
17.52,2750
17.5417,2764
17.5635,2820
17.5852,2800
17.6069,2739
17.6287,2799
17.6504,2919
17.6721,2770
17.6939,2685
17.7156,2770
17.7373,2780
17.7591,2784
17.7808,2726
17.8025,2803
17.8243,2738
17.846,2758
17.8677,2823
17.8895,2855
17.9112,2822
17.9329,2841
17.9547,2863
17.9764,2892
17.9981,2781
18.0199,2763
18.0416,2775
18.0633,2714
18.0851,2835
18.1068,2818
18.1285,2835
18.1503,2829
18.172,2814
18.1937,2700
18.2154,2797
18.2372,2848
18.2589,2867
18.2806,2756
18.3024,2838
18.3241,2817
18.3458,2877
18.3676,2930
18.3893,2867
18.411,2722
18.4328,2891
18.4545,2803
18.4762,2799
18.498,2833
18.5197,2855
18.5414,2824
18.5632,2850
18.5849,2970
18.6066,2818
18.6284,2876
18.6501,2996
18.6718,2901
18.6936,2966
18.7153,2915
18.737,2815
18.7588,2890
18.7805,2848
18.8022,2872
18.824,2862
18.8457,2787
18.8674,2826
18.8892,2859
18.9109,2927
18.9326,2843
18.9544,2865
18.9761,2854
18.9978,2906
19.0196,2900
19.0413,2873
19.063,2835
19.0848,2796
19.1065,2917
19.1282,2958
19.15,2909
19.1717,2928
19.1934,2965
19.2152,2928
19.2369,2871
19.2586,2836
19.2804,2954
19.3021,2929
19.3238,2892
19.3456,2915
19.3673,2886
19.389,2912
19.4108,3127
19.4325,2970
19.4542,3107
19.476,2999
19.4977,2988
19.5194,3076
19.5412,3033
19.5629,3041
19.5846,3071
19.6064,2926
19.6281,3021
19.6498,3064
19.6716,2942
19.6933,2998
19.715,3044
19.7368,3026
19.7585,3053
19.7802,3155
19.8019,2964
19.8237,3125
19.8454,3019
19.8671,3184
19.8889,3254
19.9106,3312
19.9323,3182
19.9541,3144
19.9758,3209
19.9975,3304
20.0193,3175
20.041,3210
20.0627,3206
20.0845,3307
20.1062,3355
20.1279,3378
20.1497,3381
20.1714,3314
20.1931,3326
20.2149,3346
20.2366,3467
20.2583,3477
20.2801,3242
20.3018,3416
20.3235,3279
20.3453,3289
20.367,3256
20.3887,3227
20.4105,3160
20.4322,3168
20.4539,3047
20.4757,3020
20.4974,3158
20.5191,3161
20.5409,3068
20.5626,3079
20.5843,3148
20.6061,3065
20.6278,3096
20.6495,2988
20.6713,3065
20.693,2973
20.7147,2971
20.7365,2990
20.7582,3065
20.7799,2920
20.8017,2967
20.8234,2992
20.8451,3025
20.8669,3029
20.8886,2962
20.9103,3017
20.9321,3003
20.9538,2987
20.9755,2912
20.9973,2969
21.019,3048
21.0407,3037
21.0625,2916
21.0842,3091
21.1059,2962
21.1277,2976
21.1494,2966
21.1711,3043
21.1929,2927
21.2146,2980
21.2363,3069
21.2581,2940
21.2798,2995
21.3015,2907
21.3233,2909
21.345,2891
21.3667,3054
21.3884,3002
21.4102,2989
21.4319,3047
21.4536,3014
21.4754,2908
21.4971,2982
21.5188,3015
21.5406,3062
21.5623,3079
21.584,2950
21.6058,2951
21.6275,2973
21.6492,2915
21.671,2963
21.6927,2986
21.7144,3017
21.7362,3020
21.7579,2900
21.7796,2991
21.8014,2949
21.8231,3018
21.8448,2972
21.8666,2801
21.8883,3041
21.91,2935
21.9318,2991
21.9535,2887
21.9752,2909
21.997,2866
22.0187,3041
22.0404,2940
22.0622,3040
22.0839,2946
22.1056,2993
22.1274,3057
22.1491,3126
22.1708,2944
22.1926,3002
22.2143,2989
22.236,3043
22.2578,3090
22.2795,3029
22.3012,3004
22.323,3086
22.3447,3159
22.3664,3150
22.3882,3128
22.4099,3220
22.4316,3333
22.4534,3221
22.4751,3068
22.4968,3226
22.5186,3347
22.5403,3250
22.562,3436
22.5838,3368
22.6055,3460
22.6272,3463
22.649,3301
22.6707,3380
22.6924,3388
22.7142,3509
22.7359,3400
22.7576,3461
22.7794,3451
22.8011,3375
22.8228,3491
22.8446,3293
22.8663,3368
22.888,3312
22.9098,3406
22.9315,3379
22.9532,3427
22.9749,3268
22.9967,3310
23.0184,3410
23.0401,3317
23.0619,3324
23.0836,3274
23.1053,3330
23.1271,3217
23.1488,3247
23.1705,3359
23.1923,3303
23.214,3322
23.2357,3278
23.2575,3192
23.2792,3299
23.3009,3277
23.3227,3264
23.3444,3186
23.3661,3257
23.3879,3303
23.4096,3175
23.4313,3198
23.4531,3320
23.4748,3368
23.4965,3362
23.5183,3329
23.54,3262
23.5617,3280
23.5835,3289
23.6052,3271
23.6269,3286
23.6487,3265
23.6704,3304
23.6921,3353
23.7139,3437
23.7356,3397
23.7573,3555
23.7791,3543
23.8008,3526
23.8225,3595
23.8443,3729
23.866,3741
23.8877,3836
23.9095,3707
23.9312,3660
23.9529,3594
23.9747,3491
23.9964,3405
24.0181,3355
24.0399,3278
24.0616,3268
24.0833,3328
24.1051,3358
24.1268,3303
24.1485,3269
24.1703,3282
24.192,3226
24.2137,3267
24.2355,3157
24.2572,3160
24.2789,3144
24.3007,3131
24.3224,3113
24.3441,3121
24.3659,3158
24.3876,3102
24.4093,3293
24.4311,3228
24.4528,3184
24.4745,3072
24.4963,3183
24.518,3098
24.5397,3226
24.5615,3156
24.5832,3133
24.6049,3185
24.6266,3145
24.6484,3065
24.6701,3299
24.6918,3154
24.7136,3219
24.7353,3171
24.757,3171
24.7788,3216
24.8005,3115
24.8222,3248
24.844,3269
24.8657,3236
24.8874,3112
24.9092,3189
24.9309,3278
24.9526,3215
24.9744,3324
24.9961,3275
25.0178,3241
25.0396,3358
25.0613,3433
25.083,3368
25.1048,3450
25.1265,3383
25.1482,3585
25.17,3281
25.1917,3387
25.2134,3359
25.2352,3449
25.2569,3472
25.2786,3366
25.3004,3331
25.3221,3271
25.3438,3386
25.3656,3378
25.3873,3180
25.409,3204
25.4308,3080
25.4525,3199
25.4742,3208
25.496,3241
25.5177,3182
25.5394,3099
25.5612,3183
25.5829,3204
25.6046,3090
25.6264,3250
25.6481,3156
25.6698,3145
25.6916,3166
25.7133,3174
25.735,3173
25.7568,3105
25.7785,3133
25.8002,3210
25.822,3115
25.8437,3063
25.8654,3125
25.8872,3232
25.9089,3124
25.9306,3220
25.9524,3201
25.9741,3199
25.9958,3181
26.0176,3185
26.0393,3218
26.061,3215
26.0828,3195
26.1045,3138
26.1262,3163
26.148,3226
26.1697,3167
26.1914,3124
26.2131,3121
26.2349,3156
26.2566,3086
26.2783,3102
26.3001,3147
26.3218,3109
26.3435,3150
26.3653,3294
26.387,3238
26.4087,3184
26.4305,3285
26.4522,3101
26.4739,3171
26.4957,3169
26.5174,3083
26.5391,3120
26.5609,3130
26.5826,3140
26.6043,3202
26.6261,3122
26.6478,3041
26.6695,3230
26.6913,3225
26.713,3203
26.7347,3129
26.7565,3161
26.7782,3042
26.7999,3126
26.8217,3196
26.8434,3101
26.8651,3142
26.8869,3225
26.9086,3178
26.9303,3232
26.9521,3042
26.9738,3110
26.9955,3211
27.0173,3200
27.039,3128
27.0607,3354
27.0825,3219
27.1042,3195
27.1259,3304
27.1477,3201
27.1694,3295
27.1911,3164
27.2129,3297
27.2346,3116
27.2563,3155
27.2781,3226
27.2998,3218
27.3215,3207
27.3433,3170
27.365,3260
27.3867,3100
27.4085,3272
27.4302,3180
27.4519,3228
27.4737,3159
27.4954,3171
27.5171,3177
27.5389,3222
27.5606,3233
27.5823,3287
27.6041,3094
27.6258,3245
27.6475,3178
27.6693,3271
27.691,3258
27.7127,3188
27.7345,3293
27.7562,3325
27.7779,3203
27.7996,3211
27.8214,3170
27.8431,3215
27.8648,3291
27.8866,3309
27.9083,3149
27.93,3266
27.9518,3152
27.9735,3231
27.9952,3090
28.017,3251
28.0387,3229
28.0604,3146
28.0822,3254
28.1039,3257
28.1256,3094
28.1474,3215
28.1691,3205
28.1908,3181
28.2126,3094
28.2343,3207
28.256,3177
28.2778,3327
28.2995,3279
28.3212,3139
28.343,3204
28.3647,3218
28.3864,3192
28.4082,3375
28.4299,3080
28.4516,3261
28.4734,3196
28.4951,3270
28.5168,3280
28.5386,3240
28.5603,3228
28.582,3290
28.6038,3321
28.6255,3320
28.6472,3230
28.669,3251
28.6907,3332
28.7124,3327
28.7342,3286
28.7559,3252
28.7776,3317
28.7994,3404
28.8211,3350
28.8428,3460
28.8646,3416
28.8863,3531
28.908,3552
28.9298,3551
28.9515,3523
28.9732,3604
28.995,3614
29.0167,3642
29.0384,3841
29.0602,3798
29.0819,3785
29.1036,3885
29.1254,3860
29.1471,3802
29.1688,3820
29.1906,3732
29.2123,3741
29.234,3698
29.2558,3717
29.2775,3759
29.2992,3684
29.321,3595
29.3427,3689
29.3644,3707
29.3861,3646
29.4079,3707
29.4296,3698
29.4513,3797
29.4731,3771
29.4948,3724
29.5165,3660
29.5383,3641
29.56,3682
29.5817,3641
29.6035,3619
29.6252,3632
29.6469,3615
29.6687,3691
29.6904,3718
29.7121,3673
29.7339,3723
29.7556,3758
29.7773,3801
29.7991,3774
29.8208,3792
29.8425,3947
29.8643,3988
29.886,3864
29.9077,3806
29.9295,3999
29.9512,4031
29.9729,4003
29.9947,4054