File: RP-XRD-S2-2022/S14.csv
Pos. [°2?],Intensity [Counts],,,
6.6419,5817.79,,,
6.6639,5891.39,,,
6.6859,5996.16,,,
6.7079,5946.35,,,
6.7299,5827.53,,,
6.7519,5749.83,,,
6.7739,5764.61,,,
6.7959,5701.62,,,
6.8179,5777.475,,,
6.8399,5778.12,,,
6.8619,5808.45,,,
6.8839,5861.72,,,
6.9059,5713.75,,,
6.9279,5666.58,,,
6.9499,5778.33,,,
6.9719,5649.87,,,
6.9939,5687.63,,,
7.0159,5694.48,,,
7.0379,5669.704,,,
7.0599,5692.44,,,
7.0819,5651.6,,,
7.1039,5620.75,,,
7.1259,5494.58,,,
7.1479,5425.81,,,
7.1699,5586.85,,,
7.1919,5530.97,,,
7.2139,5582.63,,,
7.2359,5476.44,,,Q= Quartz (SiO2)
7.2579,5430.32,,,K = Kaolinite (Al2Si2O5(OH)4)
7.2799,5362.15,,,M = Muscovite (Mica Group) (Al2K2O6Si)
7.3019,5551.35,,,H = Halite (NaCl)
7.3239,5374.95,,,"A = Albite (Feldspar, NaAlSi3O8)"
7.3459,5344.24,,,
7.4119,5510.78,,,
7.4779,5253.4,,,
7.5439,5404.73,,,
7.6099,5362.7,,,
7.6759,5377.71,,,
7.7419,5354.115,,,
7.8079,5325.37,,,
7.8739,5288.91,,,
7.9399,5211.44,,,
8.0059,5125.14,,,
8.0719,5094.62,,,
8.1379,5203.59,,,
8.2039,5046.53,,,
8.2699,5073.7,,,
8.3359,5076.6,,,
8.4019,5086.67,,,
8.4679,5005.17,,,
8.5339,4909.63,,,
8.5999,4903.35,,,
8.6659,4746.79,,,
8.7319,4926.85,,,
8.7979,4769.27,,,
8.8639,5007.16,,,
8.9299,4778.91,,,
8.9959,4769.736,,,
9.0619,4623.5,,,
9.1279,4756.739,,,
9.1939,4652.87,,,
9.2599,4697.63,,,
9.3259,4597.34,,,
9.3919,4568.972,,,
9.4579,4635.53,,,
9.5239,4545.34,,,
9.5899,4481.19,,,
9.6559,4517.55,,,
9.7219,4371.36,,,
9.7879,4403.66,,,
9.8539,4406.8,,,
9.9199,4485.55,,,
9.9859,4464.27,,,
10.0519,4511.118,,,
10.1179,4665.5,,,
10.1839,4732.78,,,
10.2499,4935.36,,,
10.3159,4826.43,,,
10.3819,4438.2,,,
10.4479,4203.04,,,
10.5139,4052.55,,,
10.5799,4024.46,,,
10.6459,4016.97,,,
10.7119,3914.084,,,
10.7779,3974.79,,,
10.8439,3806.73,,,
10.9099,4017.45,,,
10.9759,4002.4,,,
11.0419,3760.16,,,
11.1079,3749.87,,,
11.1739,3706.78,,,
11.2399,3620,,,
11.3059,3730.33,,,
11.3719,3655.68,,,
11.4379,3674.19,,,
11.5039,3531.08,,,
11.5699,3594.53,,,
11.6359,3515.47,,,
11.7019,3621.23,,,
11.7679,3546.92,,,
11.8339,3498.05,,,
11.8999,3487.584,,,
11.9659,3485.22,,,
12.0319,3470.77,,,
12.0979,3515.51,,,
12.1639,3507.9,,,
12.2299,3354.48,,,
12.2959,3390.96,,,
12.3619,3403.75,,,
12.4279,3297.7,,,
12.4939,3350.07,,,
12.5599,3398.3,,,
12.6259,3279.08,,,
12.6919,3286.99,,,
12.7579,3443.938,,,
12.8239,3267.174,,,
12.8899,3272.95,,,
12.9559,3337.59,,,
13.0219,3313.89,,,
13.0879,3365.04,,,
13.1539,3276.72,,,
13.2199,3359.45,,,
13.2859,3337.38,,,
13.3519,3370.84,,,
13.4179,3318.03,,,
13.4839,3401.73,,,
13.5499,3440.62,,,
13.6159,3472.54,,,
13.6819,3490.34,,,
13.7479,3550.4,,,
13.8139,3673.73,,,
13.8799,3779.81,,,
13.9459,3966.53,,,
14.0119,4176.21,,,
14.0779,4499.89,,,
14.1439,4940.33,,,
14.2099,5442.36,,,
14.2759,6061.73,,,
14.3419,6326.88,,,
14.4079,5837.96,,,
14.4739,4785.77,,,
14.5399,3965.19,,,
14.6059,3559,,,
14.6719,3342.88,,,
14.7379,3150.988,,,
14.8039,2900.47,,,
14.8699,2887.43,,,
14.9359,2756.5,,,
15.0019,2769.85,,,
15.0679,2630.68,,,
15.1339,2710.55,,,
15.1999,2631.89,,,
15.2659,2692.03,,,
15.3319,2673.32,,,
15.3979,2575.39,,,
15.4639,2511.22,,,
15.5299,2558.79,,,
15.5959,2558.78,,,
15.6619,2501.22,,,
15.7279,2505.59,,,
15.7939,2511.42,,,
15.8599,2559.677,,,
15.9259,2472.88,,,
15.9919,2471.29,,,
16.0579,2559.1,,,
16.1239,2499.33,,,
16.1899,2429.6,,,
16.2559,2398.38,,,
16.3219,2415.68,,,
16.3879,2339.208,,,
16.4539,2369.69,,,
16.5199,2398.24,,,
16.5859,2354.94,,,
16.6519,2416.37,,,
16.7179,2373.54,,,
16.7839,2329,,,
16.8499,2337.05,,,
16.9159,2387.06,,,
16.9819,2434.24,,,
17.0479,2355.82,,,
17.1139,2314.25,,,
17.1799,2304.28,,,
17.2459,2327.21,,,
17.3119,2295.85,,,
17.3779,2320.66,,,
17.4439,2270.84,,,
17.5099,2295.47,,,
17.5759,2292.38,,,
17.6419,2257.52,,,
17.7079,2278.351,,,
17.7739,2341.47,,,
17.8399,2253.39,,,
17.9059,2322.91,,,
17.9719,2177.73,,,
18.0379,2251.04,,,
18.1039,2193.13,,,
18.1699,2362.9,,,
18.2359,2182.33,,,
18.3019,2161.09,,,
18.3679,2298.87,,,
18.4339,2254.1,,,
18.4999,2183.95,,,
18.5659,2195.55,,,
18.6319,2187.56,,,
18.6979,2218,,,
18.7639,2229.99,,,
18.8299,2230.49,,,
18.8959,2152.27,,,
18.9619,2130.04,,,
19.0279,2185.65,,,
19.0939,2148.83,,,
19.1599,2121.52,,,
19.2259,2230.23,,,
19.2919,2152.77,,,
19.3579,2235.6,,,
19.4239,2181.155,,,
19.4899,2135.19,,,
19.5559,2160.24,,,
19.6219,2151.08,,,
19.6879,2220.87,,,
19.7539,2139.37,,,
19.8199,2183.68,,,
19.8859,2122.26,,,
19.9519,2086.51,,,
20.0179,2226.23,,,
20.0839,2201.51,,,
20.1499,2176.48,,,
20.2159,2192.37,,,
20.2819,2178.91,,,
20.3479,2167.972,,,
20.4139,2284.48,,,
20.4799,2224.87,,,
20.5459,2298.63,,,
20.6119,2354.44,,,
20.6779,2444.96,,,
20.7439,2316.61,,,
20.8099,2330,,,
20.8759,2299.76,,,
20.9419,2234.006,,,
21.0079,2203.38,,,
21.0739,2229.12,,,
21.1399,2212.14,,,
21.2059,2222.88,,,
21.2719,2260.63,,,
21.3379,2218.16,,,
21.4039,2246.92,,,
21.4699,2223.42,,,
21.5359,2188.51,,,
21.6019,2254.4,,,
21.6679,2357.87,,,
21.7339,2253.85,,,
21.7999,2269.67,,,
21.8659,2258.826,,,
21.9319,2379.99,,,
21.9979,2358.09,,,
22.0639,2312.33,,,
22.1299,2316.08,,,
22.1959,2321.29,,,
22.2619,2419.22,,,
22.3279,2536.39,,,
22.3939,2538.74,,,
22.4599,2658.41,,,
22.5259,2752.92,,,
22.5919,2884.79,,,
22.6579,3155.652,,,
22.7239,3344.27,,,
22.7899,3696.73,,,
22.8559,4188.93,,,
22.9219,4561.45,,,
22.9879,5120.89,,,
23.0539,5698.4,,,
23.1199,5946.72,,,
23.1859,5848.72,,,
23.2519,5525.29,,,
23.3179,5206.24,,,
23.3839,5041.1,,,
23.4499,4980.48,,,
23.5159,4912.88,,,
23.5819,4738.3,,,
23.6479,4731.7,,,
23.7139,4723.95,,,
23.7799,4609.06,,,
23.8459,4509.41,,,
23.9119,4579.23,,,
23.9779,4377.841,,,
24.0439,4496.65,,,
24.1099,4680.95,,,
24.1759,5188.74,,,
24.2419,8149.13,,,
24.3079,7731.55,,,
24.3739,4888.64,,,
24.4399,4565.87,,,
24.5059,4371.76,,,
24.5719,3977.16,,,
24.6379,4102.58,,,
24.7039,3987.36,,,
24.7699,3934.57,,,
24.8359,3832.1,,,
24.9019,3744.55,,,
24.9679,3771.88,,,
25.0339,3762.02,,,
25.0999,3664.35,,,
25.1659,3648.37,,,
25.2319,3550.09,,,
25.2979,3489.21,,,
25.3639,3598.03,,,
25.4299,3575.88,,,
25.4959,3558.14,,,
25.5619,3693.02,,,
25.6279,3977.385,,,
25.6939,3812.89,,,
25.7599,3434.2,,,
25.8259,3428.54,,,
25.8919,3306.51,,,
25.9579,3347.2,,,
26.0239,3330.705,,,
26.0899,3279.44,,,
26.1559,3249.5,,,
26.2219,3247.62,,,
26.2879,3250.99,,,
26.3539,3295.95,,,
26.4199,3268.76,,,
26.4859,3161.9,,,
26.5519,3138.25,,,
26.6179,3178.03,,,
26.6839,3215.1,,,
26.7499,3269.75,,,
26.8159,3291.96,,,
26.8819,3176.32,,,
26.9479,3253.97,,,
27.0139,3245.65,,,
27.0799,3113.357,,,
27.1459,2972.33,,,
27.2119,3007.68,,,
27.2779,3145.2,,,
27.3439,3219.74,,,
27.4099,3260.6,,,
27.4759,3121.15,,,
27.5419,3001.05,,,
27.6079,3032.85,,,
27.6739,3149.92,,,
27.7399,3120.39,,,
27.8059,3179.593,,,
27.8719,3056.66,,,
27.9379,3174.628,,,
28.0039,3190.61,,,
28.0699,3196.5,,,
28.1359,3336.79,,,
28.2019,3439.8,,,
28.2679,3461.41,,,
28.3339,3407.867,,,
28.3999,3277.13,,,
28.4659,3292.76,,,
28.5319,3267.45,,,
28.5979,3507.82,,,
28.6639,3582.58,,,
28.7299,3746.17,,,
28.7959,4151.02,,,
28.8619,4657.29,,,
28.9279,5134.72,,,
28.9939,5261.569,,,
29.0599,4777.879,,,
29.1259,4366.95,,,
29.1919,3977.99,,,
29.2579,3810.56,,,
29.3239,3865.65,,,
29.3899,3819.35,,,
29.4559,3814.06,,,
29.5219,3696.35,,,
29.5879,3749.8,,,
29.6539,3784.71,,,
29.7199,3679.67,,,
29.7859,3526.73,,,
29.8519,3296.27,,,
29.9179,3234.47,,,
29.9839,3113.89,,,
30.0499,2998.01,,,
30.1159,3002.89,,,
30.1819,2990.43,,,
30.2479,2948.87,,,
30.3139,2837.5,,,
30.3799,2966.22,,,
30.4459,3001.34,,,
30.5119,3052.35,,,
30.5779,3128.96,,,
30.6439,3192.96,,,
30.7099,3359.319,,,
30.7759,3758.3,,,
30.8419,4186.41,,,
30.9079,5611.98,,,
30.9739,9928.61,,,
31.0399,15698.6,,,
31.1059,9151.34,,,
31.1719,4189.82,,,
31.2379,3506.08,,,
31.3039,3275.43,,,
31.3699,3121.11,,,
31.4359,3046,,,
31.5019,3116.11,,,
31.5679,3024.94,,,
31.6339,2779.99,,,
31.6999,2759.35,,,
31.7659,2748.71,,,
31.8319,2868.11,,,
31.8979,3164.1,,,
31.9639,3475.59,,,
32.0299,3523.14,,,
32.0959,3167.16,,,
32.1619,2826.87,,,
32.2279,2836.31,,,
32.2939,3074.79,,,
32.3599,3094.559,,,
32.4259,3334.05,,,
32.4919,3633.83,,,
32.5579,3896.5,,,
32.6239,3218.44,,,
32.6899,2617.2,,,
32.7559,2748.87,,,
32.8219,2654.23,,,
32.8879,2596.51,,,
32.9539,2555.01,,,
33.0199,2395.39,,,
33.0859,2380.876,,,
33.1519,2348.4,,,
33.2179,2277.69,,,
33.2839,2336.77,,,
33.3499,2304.92,,,
33.4159,2171.45,,,
33.4819,2206.81,,,
33.5479,2212.87,,,
33.6139,2089.33,,,
33.6799,2175.07,,,
33.7459,2111.05,,,
33.8119,2145.51,,,
33.8779,2180.52,,,
33.9439,2161.72,,,
34.0099,2050.86,,,
34.0759,2155.12,,,
34.1419,2062.93,,,
34.2079,2111.07,,,
34.2739,2168.77,,,
34.3399,2202.08,,,
34.4059,2166.68,,,
34.4719,2088.009,,,
34.5379,2219.39,,,
34.6039,2199.7,,,
34.6699,2199.66,,,
34.7359,2287.966,,,
34.8019,2252.14,,,
34.8679,2205.87,,,
34.9339,2207.77,,,
34.9999,2180.88,,,
35.0659,2582.48,,,
35.1319,2757.97,,,
35.1979,2480.74,,,
35.2639,2183.03,,,
35.3299,2094.46,,,
35.3959,2062.99,,,
35.4619,2132.72,,,
35.5279,2235.18,,,
35.5939,2062.53,,,
35.6599,2008.27,,,
35.7259,1933.22,,,
35.7919,1976.88,,,
35.8579,2065.52,,,
35.9239,2083.57,,,
35.9899,1967.171,,,
36.0559,2041.04,,,
36.1219,1869.27,,,
36.1879,1891.26,,,
36.2539,1775.602,,,
36.3199,1890.456,,,
36.3859,2014.41,,,
36.4519,1972.07,,,
36.5179,2017.15,,,
36.5839,1940.74,,,
36.6499,1897.27,,,
36.7159,1823.41,,,
36.7819,1929.73,,,
36.8479,2007.133,,,
36.9139,2427.4,,,
36.9799,2966.07,,,
37.0459,2440.47,,,
37.1119,1998.48,,,
37.1779,1888.34,,,
37.2439,1820.79,,,
37.3099,1820.71,,,
37.3759,1790.56,,,
37.4419,1865.5,,,
37.5079,1823.32,,,
37.5739,1733.56,,,
37.6399,1702.65,,,
37.7059,1796.53,,,
37.7719,1795.86,,,
37.8379,1771.62,,,
37.9039,1789.44,,,
37.9699,1799.61,,,
38.0359,1778.26,,,
38.1019,1669.73,,,
38.1679,1698.56,,,
38.2339,1638.43,,,
38.2999,1733.88,,,
38.3659,1682.78,,,
38.4319,1693.94,,,
38.4979,1702.03,,,
38.5639,1700.553,,,
38.6299,1638.26,,,
38.6959,1701.93,,,
38.7619,1689.92,,,
38.8279,1667.75,,,
38.8939,1777.92,,,
38.9599,1674.64,,,
39.0259,1646.09,,,
39.0919,1633,,,
39.1579,1630.99,,,
39.2239,1656,,,
39.2899,1644.73,,,
39.3559,1676.13,,,
39.4219,1698.71,,,
39.4879,1716.94,,,
39.5539,1798.51,,,
39.6199,1754.4,,,
39.6859,1741.118,,,
39.7519,1766.23,,,
39.8179,1828.98,,,
39.8839,1876.9,,,
39.9499,1938.4,,,
40.0159,2016.86,,,
40.0819,2036.46,,,
40.1479,2120,,,
40.2139,2133.14,,,
40.2799,2292.15,,,
40.3459,2294.55,,,
40.4119,2451.18,,,
40.4779,2476.99,,,
40.5439,2600.76,,,
40.6099,2799.27,,,
40.6759,2955.62,,,
40.7419,3189.94,,,
40.8079,3356.31,,,
40.8739,3308.24,,,
40.9399,3171.69,,,
41.0059,3000.05,,,
41.0719,2835.33,,,
41.1379,2764.068,,,
41.2039,2640.66,,,
41.2699,2638.83,,,
41.3359,2621.48,,,
41.4019,2707.83,,,
41.4679,2574.89,,,
41.5339,2624.58,,,
41.5999,2547.95,,,
41.6659,2490.76,,,
41.7319,2571.05,,,
41.7979,2679.55,,,
41.8639,2702.97,,,
41.9299,2795.61,,,
41.9959,2753.73,,,
42.0619,2729.36,,,
42.1279,2637.56,,,
42.1939,2477.96,,,
42.2599,2367.835,,,
42.3259,2373.53,,,
42.3919,2353.01,,,
42.4579,2322.56,,,
42.5239,2354.52,,,
42.5899,2569.12,,,
42.6559,3007.33,,,
42.7219,3071.563,,,
42.7879,2670.22,,,
42.8539,2382.53,,,
42.9199,2350.77,,,
42.9859,2238.17,,,
43.0519,2192.06,,,
43.1179,2262.73,,,
43.1839,2226.92,,,
43.2499,2316.55,,,
43.3159,2282.04,,,
43.3819,2243.34,,,
43.4479,2138.96,,,
43.5139,2199.13,,,
43.5799,2230.15,,,
43.6459,2164.39,,,
43.7119,2204.21,,,
43.7779,2273.15,,,
43.8439,2253.64,,,
43.9099,2341.71,,,
43.9759,2389.31,,,
44.0419,2495.46,,,
44.1079,2454.83,,,
44.1739,2492.07,,,
44.2399,2430.9,,,
44.3059,2294.83,,,
44.3719,2298.57,,,
44.4379,2374.71,,,
44.5039,2253.47,,,
44.5699,2301.79,,,
44.6359,2422.14,,,
44.7019,2427.89,,,
44.7679,2587.571,,,
44.8339,2621.53,,,
44.8999,2726.01,,,
44.9659,2649.42,,,
45.0319,2640.81,,,
45.0979,2532.54,,,
45.1639,2399.35,,,
45.2299,2293.59,,,
45.2959,2203.09,,,
45.3619,2190.495,,,
45.4279,2139.42,,,
45.4939,2178.21,,,
45.5599,2022.65,,,
45.6259,2086.02,,,
45.6919,2115.03,,,
45.7579,2113.34,,,
45.8239,2130.72,,,
45.8899,2121.25,,,
45.9559,2105.64,,,
46.0219,2121.46,,,
46.0879,2273.19,,,
46.1539,2435.07,,,
46.2199,2124.569,,,
46.2859,2009.01,,,
46.3519,1845.99,,,
46.4179,1805.879,,,
46.4839,1780.14,,,
46.5499,1711.89,,,
46.6159,1750.633,,,
46.6819,1786.83,,,
46.7479,1720.12,,,
46.8139,1721.34,,,
46.8799,1815.37,,,
46.9459,1752.32,,,
47.0119,1827.38,,,
47.0779,1963.28,,,
47.1439,2155.93,,,
47.2099,1919.49,,,
47.2759,1838.96,,,
47.3419,1763.56,,,
47.4079,1684.18,,,
47.4739,1715.87,,,
47.5399,1625.37,,,
47.6059,1688.62,,,
47.6719,1698.6,,,
47.7379,1644.53,,,
47.8039,1649.73,,,
47.8699,1722.888,,,
47.9359,1710.37,,,
48.0019,1621.6,,,
48.0679,1742.45,,,
48.1339,1674.79,,,
48.1999,1661.42,,,
48.2659,1709.1,,,
48.3319,1735.13,,,
48.3979,1676.6,,,
48.4639,1653.63,,,
48.5299,1567,,,
48.5959,1696.013,,,
48.6619,1633.39,,,
48.7279,1619.6,,,
48.7939,1707.89,,,
48.8599,1597.93,,,
48.9259,1702.3,,,
48.9919,1653.612,,,
49.0579,1592.09,,,
49.1239,1593,,,
49.1899,1591.58,,,
49.2559,1578.46,,,
49.3219,1514.76,,,
49.3879,1535.93,,,
49.4539,1573.23,,,
49.5199,1669.64,,,
49.5859,1643.171,,,
49.6519,2006.77,,,
49.7179,2713.5,,,
49.7839,2064.78,,,
49.8499,1965.69,,,
49.9159,1562.98,,,
49.9819,1558.47,,,
50.0479,1541.52,,,
50.1139,1400.19,,,
50.1799,1509.46,,,
50.2459,1467.88,,,
50.3119,1483,,,
50.3779,1477.32,,,
50.4439,1424.3,,,
50.5099,1475.11,,,
50.5759,1430.72,,,
50.6419,1435.41,,,
50.7079,1465.09,,,
50.7739,1487.81,,,
50.8399,1489.05,,,
50.9059,1416.09,,,
50.9719,1444.06,,,
51.0379,1482.71,,,
51.1039,1445.92,,,
51.1699,1385.07,,,
51.2359,1400.03,,,
51.3019,1427.53,,,
51.3679,1374.53,,,
51.4339,1390.53,,,
51.4999,1398.45,,,
51.5659,1450.11,,,
51.6319,1458.04,,,
51.6979,1428.12,,,
51.7639,1382.03,,,
51.8299,1390.72,,,
51.8959,1388.5,,,
51.9619,1447.69,,,
52.0279,1356.27,,,
52.0939,1409.71,,,
52.1599,1390.009,,,
52.2259,1427.14,,,
52.2919,1380.38,,,
52.3579,1457.34,,,
52.4239,1470.89,,,
52.4899,1425.46,,,
52.5559,1374.93,,,
52.6219,1370.18,,,
52.6879,1426.67,,,
52.7539,1452.48,,,
52.8199,1486.52,,,
52.8859,1474.743,,,
52.9519,1495.17,,,
53.0179,1552.7,,,
53.0839,1680.52,,,
53.1499,1729.88,,,
53.2159,1882.77,,,
53.2819,2140.23,,,
53.3479,1907.87,,,
53.4139,1946.39,,,
53.4799,1750.77,,,
53.5459,1643.76,,,
53.6119,1805.35,,,
53.6779,2486.37,,,
53.7439,2063.71,,,
53.8099,1997.35,,,
53.8759,1634.42,,,
53.9419,1569.54,,,
54.0079,1481.48,,,
54.0739,1508.07,,,
54.1399,1486.52,,,
54.2059,1417.24,,,
54.2719,1476.95,,,
54.3379,1448.86,,,
54.4039,1432.056,,,
54.4699,1457.27,,,
54.5359,1402.65,,,
54.6019,1455.66,,,
54.6679,1354.11,,,
54.7339,1426.87,,,
54.7999,1429.02,,,
54.8659,1423.584,,,
54.9319,1439.61,,,
54.9979,1422.62,,,
55.0639,1395.39,,,
55.1299,1356.56,,,
55.1959,1421.41,,,
55.2619,1403.65,,,
55.3279,1353.28,,,
55.3939,1399.08,,,
55.4599,1357.95,,,
55.5259,1382.7,,,
55.5919,1331.53,,,
55.6579,1318.57,,,
55.7239,1288.65,,,
55.7899,1354.36,,,
55.8559,1379.95,,,
55.9219,1391.19,,,
55.9879,1368.67,,,
56.0539,1383.19,,,
56.1199,1361.67,,,
56.1859,1410.89,,,
56.2519,1407.48,,,
56.3179,1429.26,,,
56.3839,1396.95,,,
56.4499,1413.2,,,
56.5159,1383.23,,,
56.5819,1358.55,,,
56.6479,1336.71,,,
56.7139,1354.99,,,
56.7799,1253.06,,,
56.8459,1277.45,,,
56.9119,1317.73,,,
56.9779,1255.24,,,
57.0439,1247.03,,,
57.1099,1313.35,,,
57.1759,1241.71,,,
57.2419,1264.83,,,
57.3079,1283.59,,,
57.3739,1310.06,,,
57.4399,1313.21,,,
57.5059,1272.19,,,
57.5719,1323.93,,,
57.6379,1312.566,,,
57.7039,1333.99,,,
57.7699,1331.51,,,
57.8359,1312.18,,,
57.9019,1314.22,,,
57.9679,1302.64,,,
58.0339,1229.04,,,
58.0999,1236.11,,,
58.1659,1226.86,,,
58.2319,1255.509,,,
58.2979,1218.46,,,
58.3639,1246.224,,,
58.4299,1293.49,,,
58.4959,1270.61,,,
58.5619,1312.21,,,
58.6279,1283.16,,,
58.6939,1262.97,,,
58.7599,1374.31,,,
58.8259,1590.56,,,
58.8919,2265.64,,,
58.9579,2278.4,,,
59.0239,1856.62,,,
59.0899,1756.15,,,
59.1559,1291.59,,,
59.2219,1239.62,,,
59.2879,1261.83,,,
59.3539,1289.07,,,
59.4199,1377.29,,,
59.4859,1393.32,,,
59.5519,1320.155,,,
59.6179,1301.41,,,
59.6839,1332.44,,,
59.7499,1326.97,,,
59.8159,1277.93,,,
59.8819,1272.83,,,
59.9479,1296.35,,,
60.0139,1213.06,,,
60.0799,1269.85,,,
60.1459,1232.67,,,
60.2119,1254.57,,,
60.2779,1243.05,,,
60.3439,1240.22,,,
60.4099,1174.81,,,
60.4759,1146.76,,,
60.5419,1130.835,,,
60.6079,1141.68,,,
60.6739,1131.32,,,
60.7399,1142.54,,,
60.8059,1051.8,,,
60.8719,1158.82,,,
60.9379,1121.51,,,
61.0039,1136.28,,,
61.0699,1087.2,,,
61.1359,1199.81,,,
61.2019,1146.46,,,
61.2679,1147.339,,,
61.3339,1171.21,,,
61.3999,1191.44,,,
61.4659,1190.28,,,
61.5319,1183.41,,,
61.5979,1216.911,,,
61.6639,1162.07,,,
61.7299,1211.76,,,
61.7959,1137.17,,,
61.8619,1161.06,,,
61.9279,1181.81,,,
61.9939,1137.67,,,
62.0599,1186.23,,,
62.1259,1178.71,,,
62.1919,1189.13,,,
62.2579,1207.76,,,
62.3239,1250.16,,,
62.3899,1234.48,,,
62.4559,1194.57,,,
62.5219,1178.96,,,
62.5879,1198.3,,,
62.6539,1224.8,,,
62.7199,1241.336,,,
62.7859,1319.96,,,
62.8519,1344.9,,,
62.9179,1273,,,
62.9839,1298.55,,,
63.0499,1269.75,,,
63.1159,1329.274,,,
63.1819,1285.96,,,
63.2479,1301.67,,,
63.3139,1368.28,,,
63.3799,1339.69,,,
63.4459,1441.33,,,
63.5119,1380.88,,,
63.5779,1472.63,,,
63.6439,1399.134,,,
63.7099,1479.48,,,
63.7759,1465.4,,,
63.8419,1490.25,,,
63.9079,1551.32,,,
63.9739,1565.19,,,
64.0399,1552.29,,,
64.1059,1616.11,,,
64.1719,1586.6,,,
64.2379,1573.19,,,
64.3039,1538.35,,,
64.3699,1546.35,,,
64.4359,1600.36,,,
64.5019,1552.209,,,
64.5679,1631.58,,,
64.6339,1816.91,,,
64.6999,1907.04,,,
64.7659,1822.42,,,
64.8319,1869,,,
64.8979,1710.11,,,
64.9639,1693.26,,,
65.0299,1635.06,,,
65.0959,1675.23,,,
65.1619,1695.51,,,
65.2279,1791.08,,,
65.2939,1634.05,,,
65.3599,1687.85,,,
65.4259,1667.4,,,
65.4919,1589.56,,,
65.5579,1566.72,,,
65.6239,1483.16,,,
65.6899,1553.64,,,
65.7559,1517.68,,,
65.8219,1470.52,,,
65.8879,1512.82,,,
65.9539,1467.301,,,
66.0199,1459.57,,,
66.0859,1387.04,,,
66.1519,1358.69,,,
66.2179,1437.6,,,
66.2839,1449.78,,,
66.3499,1412.42,,,
66.4159,1350.21,,,
66.4819,1460.32,,,
66.5479,1395.26,,,
66.6139,1484.07,,,
66.6799,1478.1,,,
66.7459,1439.81,,,
66.8119,1443.83,,,
66.8779,1423.451,,,
66.9439,1373.3,,,
67.0099,1328.91,,,
67.0759,1349.14,,,
67.1419,1350.14,,,
67.2079,1334.33,,,
67.2739,1292.75,,,
67.3399,1338.88,,,
67.4059,1282.93,,,
67.4719,1260.72,,,
67.5379,1312.49,,,
67.6039,1284.32,,,
67.6699,1265.4,,,
67.7359,1296.89,,,
67.8019,1249.94,,,
67.8679,1214.23,,,
67.9339,1263.885,,,
67.9999,1229.43,,,
68.0659,1264.66,,,
68.1319,1227.518,,,
68.1979,1241.17,,,
68.2639,1199.82,,,
68.3299,1182.63,,,
68.3959,1160.68,,,
68.4619,1237.75,,,
68.5279,1209.39,,,
68.5939,1273.99,,,
68.6599,1218.89,,,
68.7259,1200.09,,,
68.7919,1190.56,,,
68.8579,1195.57,,,
68.9239,1158.94,,,
68.9899,1172.86,,,
69.0559,1192.34,,,
69.1219,1176.96,,,
69.1879,1164.97,,,
69.2539,1236.58,,,
69.3199,1187.17,,,
69.3859,1194.31,,,
69.4519,1191.4,,,
69.5179,1230.08,,,
69.5839,1189.04,,,
69.6499,1254.33,,,
69.7159,1176.25,,,
69.7819,1097.625,,,
69.8479,1108.99,,,
69.9139,1175.64,,,
69.9799,1198.9,,,
70.0459,1152.19,,,
70.1119,1191.46,,,
70.1779,1189.12,,,
70.2439,1187.64,,,
70.3099,1202.73,,,
70.3759,1189.76,,,
70.4419,1123.965,,,
70.5079,1193.65,,,
70.5739,1206.68,,,
70.6399,1203.338,,,
70.7059,1229.55,,,
70.7719,1328.29,,,
70.8379,1497.08,,,
70.9039,1941.5,,,
70.9699,1736.95,,,
71.0359,1537.29,,,
71.1019,1650.93,,,
71.1679,1379.25,,,
71.2339,1259.69,,,
71.2999,1266.61,,,
71.3659,1257.14,,,
71.4319,1175.15,,,
71.4979,1190.54,,,
71.5639,1203.19,,,
71.6299,1201.5,,,
71.6959,1211,,,
71.7619,1267.36,,,
71.8279,1237.08,,,
71.8939,1206.02,,,
71.9599,1235.36,,,
72.0259,1252.86,,,
72.0919,1276.947,,,
72.1579,1239.64,,,
72.2239,1301.08,,,
72.2899,1395.071,,,
72.3559,1381.4,,,
72.4219,1382,,,
72.4879,1354.32,,,
72.5539,1435.72,,,
72.6199,1385.45,,,
72.6859,1424.06,,,
72.7519,1429.857,,,
72.8179,1476.06,,,
72.8839,1455.89,,,
72.9499,1537.43,,,
73.0159,1571.2,,,
73.0819,1500.65,,,
73.1479,1563.91,,,
73.2139,1588.13,,,
73.2799,1663.48,,,
73.3459,1689.76,,,
73.4119,1674.69,,,
73.4779,1743.38,,,
73.5439,1801.5,,,
73.6099,1845.366,,,
73.6759,1871.58,,,
73.7419,2080.12,,,
73.8079,2024.63,,,
73.8739,1968.66,,,
73.9399,1886.45,,,
74.0059,1852.36,,,
74.0719,1717.84,,,
74.1379,1683.71,,,
74.2039,1536.19,,,
74.2699,1506.96,,,
74.3359,1440.01,,,
74.4019,1438.73,,,
74.4679,1381.17,,,
74.5339,1345.575,,,
74.5999,1350.07,,,
74.6659,1310.3,,,
74.7319,1344.56,,,
74.7979,1331.32,,,
74.8639,1299.071,,,
74.9299,1282.02,,,
74.9959,1281.26,,,
75.0619,1309.38,,,
75.1279,1297.54,,,
75.1939,1263.6,,,
75.2599,1314.13,,,
75.3259,1271.7,,,
75.3919,1258.09,,,
75.4579,1205.53,,,
75.5239,1294.11,,,
75.5899,1216.13,,,
75.6559,1338.03,,,
75.7219,1366.01,,,
75.7879,1255.602,,,
75.8539,1281.81,,,
75.9199,1334.37,,,
75.9859,1377.31,,,
76.0519,1243.76,,,
76.1179,1266.35,,,
76.1839,1263.596,,,
76.2499,1213.51,,,
76.3159,1133.06,,,
76.3819,1157.27,,,
76.4479,1123.44,,,
76.5139,1160.799,,,
76.5799,1115.99,,,
76.6459,1121.47,,,
76.7119,1083.42,,,
76.7779,1152.58,,,
76.8439,1156.64,,,
76.9099,1061.47,,,
76.9759,1083.31,,,
77.0419,1131.345,,,
77.1079,1112.372,,,
77.1739,1101.12,,,
77.2399,1171.92,,,
77.3059,1156.84,,,
77.3719,1106.3,,,
77.4379,1083.65,,,
77.5039,1132.43,,,
77.5699,1142.35,,,
77.6359,1171.82,,,
77.7019,1192.47,,,
77.7679,1137.95,,,
77.8339,1067.81,,,
77.8999,1067.13,,,
77.9659,1143.57,,,
78.0319,1062.15,,,
78.0979,1096.1,,,
78.1639,1150.94,,,
78.2299,1089.11,,,
78.2959,1118.41,,,
78.3619,1045.33,,,
78.4279,1140.4,,,
78.4939,1049.54,,,
78.5599,1065.7,,,
78.6259,1038.55,,,
78.6919,1111.11,,,
78.7579,1125.55,,,
78.8239,1093.02,,,
78.8899,1109.62,,,
78.9559,1137.04,,,
79.0219,1077.93,,,
79.0879,1041.8,,,
79.1539,1123.87,,,
79.2199,1074.57,,,
79.2859,1054.98,,,
79.3519,1126.02,,,
79.4179,1117.01,,,
79.4839,1083.04,,,
79.5499,1040.387,,,
79.6159,1075.13,,,
79.6599,1120.29,,,