File: RP-XRD-S2-2022/S15.csv
Angle,Counts
8.5339,5073.49
8.5999,5111.323
8.6659,4998.91
8.7319,5049.61
8.7979,5030.75
8.8639,4963.087
8.9299,4890.79
8.9959,4906.56
9.0619,4938.84
9.1279,4768.59
9.1939,4831.29
9.2599,4896.18
9.3259,4718.28
9.3919,4679.64
9.4579,4726.38
9.5239,4581.885
9.5899,4640.14
9.6559,4606.66
9.7219,4586.34
9.7879,4506.76
9.8539,4617.3
9.9199,4523.42
9.9859,4587.38
10.0519,4620.73
10.1179,4823.55
10.1839,4934.71
10.2499,5174.04
10.3159,5172.11
10.3819,4620.348
10.4479,4248.37
10.5139,4229.56
10.5799,4136.7
10.6459,4132.475
10.7119,4043.08
10.7779,3978.63
10.8439,3928.472
10.9099,4003.19
10.9759,3969.98
11.0419,3928.49
11.1079,3798.42
11.1739,3706.57
11.2399,3634.67
11.3059,3637.62
11.3719,3656.63
11.4379,3652.6
11.5039,3616.416
11.5699,3544.2
11.6359,3546.55
11.7019,3607.2
11.7679,3472.6
11.8339,3457.584
11.8999,3520.739
11.9659,3507.95
12.0319,3483.32
12.0979,3539.92
12.1639,3439.25
12.2299,3438.5
12.2959,3511.09
12.3619,3363.92
12.4279,3402.22
12.4939,3358.531
12.5599,3342.38
12.6259,3380.05
12.6919,3481.69
12.7579,3316.941
12.8239,3339.52
12.8899,3371.31
12.9559,3352.51
13.0219,3356.52
13.0879,3342.27
13.1539,3619.32
13.2199,3314.37
13.2859,3385.22
13.3519,3382.17
13.4179,3548.45
13.4839,3612.21
13.5499,3498.77
13.6159,3599.71
13.6819,3700.72
13.7479,3749.99
13.8139,3955.09
13.8799,4144.63
13.9459,4370.07
14.0119,4780.96
14.0779,4976.07
14.1439,5606.94
14.2099,6398.79
14.2759,7272.89
14.3419,7736.75
14.4079,7096.18
14.4739,5562.2
14.5399,4597.91
14.6059,3998.28
14.6719,3494.19
14.7379,3377.4
14.8039,3125.1
14.8699,3065.5
14.9359,2940
15.0019,2906.85
15.0679,2831.65
15.1339,2809.5
15.1999,2751.85
15.2659,2702.14
15.3319,2699.57
15.3979,2758.07
15.4639,2618.58
15.5299,2576.47
15.5959,2634.6
15.6619,2566.23
15.7279,2616.42
15.7939,2643.87
15.8599,2602.41
15.9259,2556.45
15.9919,2532.82
16.0579,2603.48
16.1239,2635.51
16.1899,2473.01
16.2559,2452.98
16.3219,2453.09
16.3879,2491.46
16.4539,2402.18
16.5199,2335.93
16.5859,2440.7
16.6519,2339.22
16.7179,2403.33
16.7839,2408.54
16.8499,2411.3
16.9159,2396.91
16.9819,2387.57
17.0479,2447.41
17.1139,2392.73
17.1799,2376.46
17.2459,2356.35
17.3119,2399.77
17.3779,2364.67
17.4439,2370.584
17.5099,2313.24
17.5759,2354.826
17.6419,2289.5
17.7079,2358.63
17.7739,2330.75
17.8399,2202.54
17.9059,2243.056
17.9719,2255.13
18.0379,2325.52
18.1039,2241.17
18.1699,2275.54
18.2359,2304.46
18.3019,2159.17
18.3679,2268.66
18.4339,2173.04
18.4999,2194.35
18.5659,2203.67
18.6319,2224.18
18.6979,2217
18.7639,2236.27
18.8299,2205.3
18.8959,2167.06
18.9619,2141.33
19.0279,2193.43
19.0939,2146.22
19.1599,2235.68
19.2259,2258.39
19.2919,2148.12
19.3579,2162.3
19.4239,2259.04
19.4899,2238.79
19.5559,2262.37
19.6219,2207.64
19.6879,2219.45
19.7539,2211.09
19.8199,2243.41
19.8859,2162.02
19.9519,2209.42
20.0179,2164.17
20.0839,2239.63
20.1499,2207.91
20.2159,2151.72
20.2819,2172.84
20.3479,2239.55
20.4139,2273.74
20.4799,2248.9
20.5459,2339.17
20.6119,2503.32
20.6779,2402.96
20.7439,2327.84
20.8099,2305.04
20.8759,2308.64
20.9419,2324.37
21.0079,2259.854
21.0739,2251.63
21.1399,2266.88
21.2059,2279.62
21.2719,2304.83
21.3379,2234.22
21.4039,2246.43
21.4699,2220.78
21.5359,2189.38
21.6019,2256.85
21.6679,2186.94
21.7339,2211.354
21.7999,2296.12
21.8659,2294.587
21.9319,2272.99
21.9979,2379.08
22.0639,2309.55
22.1299,2319.52
22.1959,2359.77
22.2619,2268.773
22.3279,2438.22
22.3939,2591.82
22.4599,2648.649
22.5259,2786.99
22.5919,2932.177
22.6579,3200.68
22.7239,3352.14
22.7899,3712.21
22.8559,4078.29
22.9219,4582.87
22.9879,5099.75
23.0539,5623.9
23.1199,5864.93
23.1859,5774.17
23.2519,5522.85
23.3179,5201.66
23.3839,5031.77
23.4499,4945.01
23.5159,4909.94
23.5819,4817.49
23.6479,4736.78
23.7139,4724.12
23.7799,4683.92
23.8459,4574.764
23.9119,4557.89
23.9779,4394.97
24.0439,4639.43
24.1099,4533.92
24.1759,4982.06
24.2419,6259.01
24.3079,5955.45
24.3739,4783.265
24.4399,4776.32
24.5059,4427.59
24.5719,4251.73
24.6379,4068.35
24.7039,4022.24
24.7699,3986.32
24.8359,4000.44
24.9019,3923.99
24.9679,3928.74
25.0339,3800.98
25.0999,3682.79
25.1659,3637.97
25.2319,3571.51
25.2979,3646.65
25.3639,3474.29
25.4299,3448.475
25.4959,3556.74
25.5619,3765.45
25.6279,4388.988
25.6939,3996.06
25.7599,3509.49
25.8259,3473.95
25.8919,3427
25.9579,3428.07
26.0239,3358.2
26.0899,3315.42
26.1559,3280.5
26.2219,3158.2
26.2879,3309.05
26.3539,3234.09
26.4199,3222.09
26.4859,3152.41
26.5519,3228.832
26.6179,3172
26.6839,3311.09
26.7499,3239.78
26.8159,3282.74
26.8819,3389.94
26.9479,3307.29
27.0139,3431.18
27.0799,3126.09
27.1459,3109.876
27.2119,2907.85
27.2779,3126.67
27.3439,3261.98
27.4099,3292.316
27.4759,3424.98
27.5419,3081.85
27.6079,3107.67
27.6739,3202.72
27.7399,3220.97
27.8059,3166.5
27.8719,3130.62
27.9379,3211
28.0039,3216.52
28.0699,3271.42
28.1359,3368.974
28.2019,3466.64
28.2679,3572.44
28.3339,3568.67
28.3999,3467.857
28.4659,3403.83
28.5319,3504.12
28.5979,3499.34
28.6639,3720.55
28.7299,4171.26
28.7959,4569.73
28.8619,5072.88
28.9279,5688.56
28.9939,5993.93
29.0599,5613.43
29.1259,4979.37
29.1919,4308.02
29.2579,4163.826
29.3239,3931.96
29.3899,4060.36
29.4559,3936.02
29.5219,3811.05
29.5879,3922.99
29.6539,3824.48
29.7199,4349.99
29.7859,3942.89
29.8519,3507.48
29.9179,3411.65
29.9839,3198.34
30.0499,3141.27
30.1159,2971.69
30.1819,3011.18
30.2479,3036.39
30.3139,3004.12
30.3799,3004.68
30.4459,3048.03
30.5119,3064.49
30.5779,3129.42
30.6439,3079.46
30.7099,3518.96
30.7759,3830.46
30.8419,4009.16
30.9079,4983.488
30.9739,8795.06
31.0399,14639.6
31.1059,9171.85
31.1719,4265.63
31.2379,3587.1
31.3039,3298.9
31.3699,3102.91
31.4359,3045.79
31.5019,3190.49
31.5679,3182.58
31.6339,2835.26
31.6999,2849.02
31.7659,2788.68
31.8319,2912.61
31.8979,3162.52
31.9639,3946.06
32.0299,3863.71
32.0959,3296.15
32.1619,2841.08
32.2279,2885.05
32.2939,3102.27
32.3599,3209.93
32.4259,3369.369
32.4919,3692.23
32.5579,4259.85
32.6239,3731.4
32.6899,2878.646
32.7559,2654.68
32.8219,2729.15
32.8879,2710.98
32.9539,2704.09
33.0199,2593.4
33.0859,2476.81
33.1519,2347.88
33.2179,2294.79
33.2839,2278.03
33.3499,2414.78
33.4159,2349.56
33.4819,2185.805
33.5479,2198.85
33.6139,2165.67
33.6799,2130.5
33.7459,2201.83
33.8119,2208.45
33.8779,2240.73
33.9439,2322.64
34.0099,2273.48
34.0759,2222.23
34.1419,2125.08
34.2079,2155.081
34.2739,2179.87
34.3399,2185.55
34.4059,2215.27
34.4719,2234.54
34.5379,2181.37
34.6039,2256.71
34.6699,2222.68
34.7359,2288.24
34.8019,2327.68
34.8679,2316.39
34.9339,2242.67
34.9999,2203.34
35.0659,2252.177
35.1319,2227.823
35.1979,2269.2
35.2639,2292.33
35.3299,2191.38
35.3959,2135.59
35.4619,2153.19
35.5279,2349.22
35.5939,2220.45
35.6599,2090.43
35.7259,2073.88
35.7919,2072.91
35.8579,2169.01
35.9239,2203.391
35.9899,2077.57
36.0559,2021.72
36.1219,2024.42
36.1879,1918.13
36.2539,1914.761
36.3199,1948.289
36.3859,2037.805
36.4519,2060.98
36.5179,2106.29
36.5839,1940.71
36.6499,1935.99
36.7159,1947.81
36.7819,1960.06
36.8479,1934.51
36.9139,2139.87
36.9799,2401.04
37.0459,2176.57
37.1119,2075.17
37.1779,1938.42
37.2439,1851.14
37.3099,1897.9
37.3759,1970.92
37.4419,1911.58
37.5079,1828.37
37.5739,1836.66
37.6399,1830.44
37.7059,1831.01
37.7719,1819.422
37.8379,1832.81
37.9039,1838.31
37.9699,1787.6
38.0359,1738.51
38.1019,1722.82
38.1679,1738.91
38.2339,1703.81
38.2999,1652.69
38.3659,1760.88
38.4319,1714.4
38.4979,1775.28
38.5639,1696.77
38.6299,1717.85
38.6959,1698.07
38.7619,1751.86
38.8279,1766.02
38.8939,1702.66
38.9599,1723.09
39.0259,1763.44
39.0919,1708.18
39.1579,1717.38
39.2239,1662.01
39.2899,1692.16
39.3559,1728.98
39.4219,1670.64
39.4879,1642.61
39.5539,1763.189
39.6199,1775.49
39.6859,1735.009
39.7519,1762.9
39.8179,1809.29
39.8839,1934.13
39.9499,1965.909
40.0159,2086.75
40.0819,2095.99
40.1479,2158.54
40.2139,2236.75
40.2799,2359.58
40.3459,2380.31
40.4119,2532.19
40.4779,2541.46
40.5439,2675.76
40.6099,2833.98
40.6759,2922.91
40.7419,3290.61
40.8079,3457.37
40.8739,3460.93
40.9399,3357.68
41.0059,3228.43
41.0719,2985
41.1379,2785.581
41.2039,2808.2
41.2699,2760.16
41.3359,2836.41
41.4019,2775.56
41.4679,2704.47
41.5339,2643.28
41.5999,2640.23
41.6659,2627.85
41.7319,2590.61
41.7979,2617.8
41.8639,2775.65
41.9299,2857.5
41.9959,2838.06
42.0619,2854.21
42.1279,2688.994
42.1939,2535.11
42.2599,2422.55
42.3259,2379.614
42.3919,2358
42.4579,2255.333
42.5239,2409.16
42.5899,2442.74
42.6559,2778.08
42.7219,2978.66
42.7879,2814.54
42.8539,2418.83
42.9199,2311.49
42.9859,2357.98
43.0519,2300.16
43.1179,2320.72
43.1839,2339.91
43.2499,2323.11
43.3159,2245.18
43.3819,2295.03
43.4479,2230.21
43.5139,2195.4
43.5799,2183.35
43.6459,2280.53
43.7119,2294.72
43.7779,2301.407
43.8439,2369.64
43.9099,2359.19
43.9759,2462.71
44.0419,2555.94
44.1079,2545.18
44.1739,2625.04
44.2399,2425.84
44.3059,2404.16
44.3719,2398.99
44.4379,2401.71
44.5039,2356.25
44.5699,2505.46
44.6359,2386.24
44.7019,2586.44
44.7679,2670.12
44.8339,2730.73
44.8999,2859.655
44.9659,2837.64
45.0319,2806.19
45.0979,2707.84
45.1639,2542.18
45.2299,2416.02
45.2959,2315.96
45.3619,2295.54
45.4279,2256.65
45.4939,2180.404
45.5599,2157.01
45.6259,2248.52
45.6919,2172.81
45.7579,2216.99
45.8239,2222.24
45.8899,2287.32
45.9559,2158.95
46.0219,2123.83
46.0879,2237.9
46.1539,2519.12
46.2199,2324.06
46.2859,2114.7
46.3519,1841.26
46.4179,1882.48
46.4839,1723.59
46.5499,1775.83
46.6159,1766.61
46.6819,1749.88
46.7479,1732.29
46.8139,1703.96
46.8799,1797.42
46.9459,1773.28
47.0119,1826.13
47.0779,1956.57
47.1439,2217.61
47.2099,2008.25
47.2759,2020.27
47.3419,1721.41
47.4079,1677.31
47.4739,1739.47
47.5399,1732.19
47.6059,1668.646
47.6719,1673.15
47.7379,1664.97
47.8039,1648.64
47.8699,1669.28
47.9359,1691.03
48.0019,1680.83
48.0679,1666.32
48.1339,1673.62
48.1999,1750.14
48.2659,1716.35
48.3319,1736.42
48.3979,1752.73
48.4639,1670.03
48.5299,1575
48.5959,1702.013
48.6619,1668.67
48.7279,1681.23
48.7939,1693.44
48.8599,1667.58
48.9259,1750.27
48.9919,1745.62
49.0579,1660.32
49.1239,1632.37
49.1899,1672.75
49.2559,1623.314
49.3219,1597.46
49.3879,1570.96
49.4539,1579
49.5199,1584.42
49.5859,1670.27
49.6519,1878.282
49.7179,2093.5
49.7839,1870.8
49.8499,1781.83
49.9159,1589.15
49.9819,1653.42
50.0479,1619.94
50.1139,1569.07
50.1799,1642.87
50.2459,1498.89
50.3119,1461.18
50.3779,1474.61
50.4439,1450.88
50.5099,1434.07
50.5759,1480.43
50.6419,1474.68
50.7079,1466.075
50.7739,1438.43
50.8399,1503.51
50.9059,1480.04
50.9719,1485.49
51.0379,1497.09
51.1039,1470.66
51.1699,1415.48
51.2359,1484.57
51.3019,1489.33
51.3679,1437.53
51.4339,1426.7
51.4999,1475.76
51.5659,1495.37
51.6319,1435.01
51.6979,1436.46
51.7639,1492.47
51.8299,1495.93
51.8959,1460.1
51.9619,1397.44
52.0279,1473.48
52.0939,1495.91
52.1599,1439.32
52.2259,1449.88
52.2919,1436.82
52.3579,1457.071
52.4239,1494.63
52.4899,1455.38
52.5559,1498.74
52.6219,1458.71
52.6879,1479.03
52.7539,1507.89
52.8199,1485.17
52.8859,1537.6
52.9519,1643.66
53.0179,1703.37
53.0839,1687.7
53.1499,1770.56
53.2159,1924.36
53.2819,2074.32
53.3479,1950.65
53.4139,1961.62
53.4799,1807.08
53.5459,1761.51
53.6119,1760.16
53.6779,1964.14
53.7439,1916.05
53.8099,1711.96
53.8759,1666.42
53.9419,1635.99
54.0079,1528.36
54.0739,1518.867
54.1399,1573.61
54.2059,1514.51
54.2719,1489.12
54.3379,1511.11
54.4039,1458.21
54.4699,1489.23
54.5359,1487.97
54.6019,1422.82
54.6679,1471.46
54.7339,1454.68
54.7999,1474.33
54.8659,1476.24
54.9319,1501.54
54.9979,1486.03
55.0639,1394.575
55.1299,1441.31
55.1959,1387.03
55.2619,1420.16
55.3279,1521.36
55.3939,1459.16
55.4599,1379.01
55.5259,1393.504
55.5919,1398.821
55.6579,1429.21
55.7239,1468.83
55.7899,1400.78
55.8559,1397.93
55.9219,1464.78
55.9879,1393.17
56.0539,1412.71
56.1199,1416.26
56.1859,1510.76
56.2519,1491.8
56.3179,1480.33
56.3839,1499.91
56.4499,1489.51
56.5159,1459.158
56.5819,1443.43
56.6479,1412.84
56.7139,1399.06
56.7799,1363.24
56.8459,1311.65
56.9119,1385.73
56.9779,1357.64
57.0439,1280.93
57.1099,1277.6
57.1759,1361.39
57.2419,1335.425
57.3079,1348.51
57.3739,1354.75
57.4399,1353.376
57.5059,1286.63
57.5719,1322.08
57.6379,1338.23
57.7039,1335.41
57.7699,1371.86
57.8359,1380.61
57.9019,1419.68
57.9679,1379.17
58.0339,1349.35
58.0999,1339.19
58.1659,1344.501
58.2319,1351.68
58.2979,1306.23
58.3639,1315
58.4299,1285.99
58.4959,1324.87
58.5619,1386.53
58.6279,1396.34
58.6939,1425.85
58.7599,1428.41
58.8259,1564.93
58.8919,2420.47
58.9579,2955.67
59.0239,2000.367
59.0899,2087.74
59.1559,1455.99
59.2219,1319.34
59.2879,1234.83
59.3539,1371.95
59.4199,1411.33
59.4859,1434.702
59.5519,1433.155
59.6179,1449.51
59.6839,1374.56
59.7499,1307.28
59.8159,1294.1
59.8819,1372.6
59.9479,1284.86
60.0139,1323.96
60.0799,1282.32
60.1459,1349.45
60.2119,1308.16
60.2779,1310.86
60.3439,1305.65
60.4099,1267.04
60.4759,1218.21
60.5419,1229.912
60.6079,1132.14
60.6739,1210.17
60.7399,1142.46
60.8059,1169.779
60.8719,1176.801
60.9379,1158.93
61.0039,1149.47
61.0699,1130.124
61.1359,1193.2
61.2019,1097.15
61.2679,1151.43
61.3339,1195.14
61.3999,1193.67
61.4659,1153.72
61.5319,1221.02
61.5979,1232.48
61.6639,1286.24
61.7299,1231.38
61.7959,1286.59
61.8619,1212.59
61.9279,1226.01
61.9939,1190.67
62.0599,1219.95
62.1259,1238.466
62.1919,1243.55
62.2579,1211.357
62.3239,1288.63
62.3899,1226.81
62.4559,1298.95
62.5219,1235.39
62.5879,1287.18
62.6539,1294.4
62.7199,1317.48
62.7859,1298.24
62.8519,1302.05
62.9179,1386.89
62.9839,1308.7
63.0499,1362.27
63.1159,1316.74
63.1819,1375.96
63.2479,1355.78
63.3139,1397.33
63.3799,1418.11
63.4459,1482.33
63.5119,1471.86
63.5779,1443.1
63.6439,1477.43
63.7099,1530.44
63.7759,1548.83
63.8419,1521.65
63.9079,1587.506
63.9739,1638.95
64.0399,1621.71
64.1059,1671.17
64.1719,1628.7
64.2379,1678.76
64.3039,1620.24
64.3699,1543.7
64.4359,1589.36
64.5019,1665.224
64.5679,1705.69
64.6339,1874.838
64.6999,2028.56
64.7659,1845.44
64.8319,1938.68
64.8979,1857.42
64.9639,1801.71
65.0299,1812.76
65.0959,1812.86
65.1619,1748.11
65.2279,1824.32
65.2939,1763.83
65.3599,1688.16
65.4259,1659.95
65.4919,1699.82
65.5579,1611.5
65.6239,1626.19
65.6899,1559.58
65.7559,1556.12
65.8219,1580.16
65.8879,1558.14
65.9539,1514.73
66.0199,1448.857
66.0859,1427.59
66.1519,1431.1
66.2179,1455.21
66.2839,1480.24
66.3499,1423.46
66.4159,1380.13
66.4819,1484.55
66.5479,1417.26
66.6139,1489.85
66.6799,1480.66
66.7459,1454.32
66.8119,1416.16
66.8779,1479.53
66.9439,1437.4
67.0099,1383.18
67.0759,1417.36
67.1419,1423.79
67.2079,1407.084
67.2739,1344.87
67.3399,1353.73
67.4059,1297.006
67.4719,1344.58
67.5379,1307.49
67.6039,1294.53
67.6699,1305.45
67.7359,1281.77
67.8019,1255.51
67.8679,1301.88
67.9339,1260.48
67.9999,1304.33
68.0659,1272.27
68.1319,1254.09
68.1979,1263.47
68.2639,1249.48
68.3299,1221.67
68.3959,1222.89
68.4619,1229.09
68.5279,1256.96
68.5939,1249.345
68.6599,1273.5
68.7259,1256.31
68.7919,1279.2
68.8579,1279.36
68.9239,1224.24
68.9899,1225.09
69.0559,1237.48
69.1219,1244.09
69.1879,1238.32
69.2539,1236.56
69.3199,1280.916
69.3859,1272.525
69.4519,1278.76
69.5179,1205.72
69.5839,1228.21
69.6499,1232.79
69.7159,1220.04
69.7819,1210.7
69.8479,1218.95
69.9139,1142.88
69.9799,1311.84
70.0459,1271.74
70.1119,1254.91
70.1779,1208.61
70.2439,1311
70.3099,1263.73
70.3759,1198.94
70.4419,1304.12
70.5079,1258.77
70.5739,1315.7
70.6399,1292.12
70.7059,1312.82
70.7719,1371.214
70.8379,1480.21
70.9039,1981.5
70.9699,1876.686
71.0359,1586.115
71.1019,1720.34
71.1679,1502.71
71.2339,1311.2
71.2999,1327.54
71.3659,1321.44
71.4319,1295.16
71.4979,1285.46
71.5639,1305.513
71.6299,1285.38
71.6959,1250.26
71.7619,1318.75
71.8279,1295.9
71.8939,1317.76
71.9599,1300.54
72.0259,1274.28
72.0919,1324.47
72.1579,1326.79
72.2239,1326.18
72.2899,1359.48
72.3559,1409.49
72.4219,1392.65
72.4879,1417.31
72.5539,1468.062
72.6199,1466.41
72.6859,1507.23
72.7519,1535.39
72.8179,1515.58
72.8839,1490.51
72.9499,1487.86
73.0159,1557.37
73.0819,1594.67
73.1479,1587.13
73.2139,1627.183
73.2799,1729.89
73.3459,1685.41
73.4119,1749.83
73.4779,1767.81
73.5439,1858.08
73.6099,1885.2
73.6759,1950.43
73.7419,2080.09
73.8079,2066.49
73.8739,2001.09
73.9399,1959.67
74.0059,1832.93
74.0719,1827.88
74.1379,1686.96
74.2039,1577.21
74.2699,1537.27
74.3359,1474.57
74.4019,1439.73
74.4679,1367.26
74.5339,1363.97
74.5999,1356.24
74.6659,1354.67
74.7319,1304.71
74.7979,1358.73
74.8639,1330.18
74.9299,1312.53
74.9959,1287.63
75.0619,1259.19
75.1279,1294.94
75.1939,1298.2
75.2599,1294.53
75.3259,1318.99
75.3919,1326.07
75.4579,1298.51
75.5239,1289.35
75.5899,1369.74
75.6559,1311.17
75.7219,1409.07
75.7879,1349.199
75.8539,1387.26
75.9199,1332.049
75.9859,1463.75
76.0519,1352.56
76.1179,1270.3
76.1839,1295.36
76.2499,1261.85
76.3159,1227.01
76.3819,1245.57
76.4479,1163.85
76.5139,1180.83
76.5799,1188.289
76.6459,1149.94
76.7119,1132.26
76.7779,1183.68
76.8439,1175.64
76.9099,1128.47
76.9759,1212.59
77.0419,1166.18
77.1079,1138.73
77.1739,1149.89
77.2399,1158.47
77.3059,1163.53
77.3719,1147.543
77.4379,1197.08
77.5039,1172.07
77.5699,1159.94
77.6359,1225.597
77.7019,1153.08
77.7679,1174.33
77.8339,1126.65
77.8999,1141.67
77.9659,1074.61
78.0319,1158.64
78.0979,1122.81
78.1639,1139.75
78.2299,1107.51
78.2959,1106.82
78.3619,1114.67
78.4279,1117.73
78.4939,1092.66
78.5599,1191.45
78.6259,1125.88
78.6919,1142.7
78.7579,1157.76
78.8239,1093.75
78.8899,1203.74
78.9559,1128.02
79.0219,1168.354
79.0879,1088.94
79.1539,1116.86
79.2199,1137.23
79.2859,1097.66
79.3519,1095.82
79.4179,1161.221
79.4839,1078.15
79.5499,1135.96
79.6159,1139.96
79.6819,1137.23
79.7479,1171.4
79.8139,1150.96
79.8799,1195.84
79.9459,1107.1
78.1199,1041.34
78.1859,1174.7
78.2519,1098.84
78.3179,1094.03
78.3839,1065.08
78.4499,1103.19
78.5159,1071.88
78.5819,1090.85
78.6479,1085.37
78.7139,1157.76
78.7799,1101.69
78.8459,1097.75
78.9119,1115.84
78.9779,1130.3
79.0439,1078.05
79.1099,1051.75
79.1759,1128.45
79.2419,1043.49
79.3079,1041.49
79.3739,1106.93
79.4399,1142.5
79.5059,1059.77
79.5719,1091.32
79.6379,1071.96
79.6599,1120.29