File: RP-XRD-S2-2022/S16.csv
Pos. [°2?],Intensity [Counts]
7.3239,5906.18
7.3899,6014.51
7.4559,5917.85
7.5219,5806.936
7.5879,5887.585
7.6539,5704.73
7.7199,5657.61
7.7859,5712.28
7.8519,5759.94
7.9179,5559.73
7.9839,5545.19
8.0499,5596.09
8.1159,5443.48
8.1819,5576.48
8.2479,5489.25
8.3139,5369.09
8.3799,5437.41
8.4459,5420.08
8.5119,5285.47
8.5779,5252.95
8.6439,5282.561
8.7099,5103.02
8.7759,5013.115
8.8419,5149.92
8.9079,5166.31
8.9739,5022.14
9.0399,5032.44
9.1059,4889.89
9.1719,4901.94
9.2379,4830.67
9.3039,4846.17
9.3699,4891.47
9.4359,4773.39
9.5019,4686.2
9.5679,4676.26
9.6339,4704.767
9.6999,4556.88
9.7659,4641.56
9.8319,4581.28
9.8979,4719.78
9.9639,4732.18
10.0299,4763.35
10.0959,4873.32
10.1619,5132.33
10.2279,5313.19
10.2939,5409.3
10.3599,4892.89
10.4259,4365.22
10.4919,4276.31
10.5579,4231.29
10.6239,4067.59
10.6899,4007.73
10.7559,3942.34
10.8219,3918.22
10.8879,3901.69
10.9539,3916.67
11.0199,3815.73
11.0859,3909.61
11.1519,3757.4
11.2179,3849.64
11.2839,3864.54
11.3499,3737.11
11.4159,3673.5
11.4819,3707.36
11.5479,3635.95
11.6139,3581.91
11.6799,3638.86
11.7459,3566
11.8119,3510.64
11.8779,3476.8
11.9439,3491.56
12.0099,3622.7
12.0759,3506.8
12.1419,3501.058
12.2079,3578.51
12.2739,3498.89
12.3399,3475
12.4059,3303.2
12.4719,3390.83
12.5379,3407.87
12.6039,3323.12
12.6699,3407.49
12.7359,3394.14
12.8019,3420.07
12.8679,3419.6
12.9339,3433.07
12.9999,3388.5
13.0659,3480.67
13.1319,3448.762
13.1979,3390.416
13.2639,3558.21
13.3299,3425.66
13.3959,3526.22
13.4619,3502.84
13.5279,3535.36
13.5939,3627.52
13.6599,3687.53
13.7259,3724.89
13.7919,3820.77
13.8579,3996.75
13.9239,4232.247
13.9899,4578.09
14.0559,4852.28
14.1219,5287.5
14.1879,6109.37
14.2539,6950.87
14.3199,7752.73
14.3859,7461.2
14.4519,6184.973
14.5179,4881.01
14.5839,4129.05
14.6499,3642.94
14.7159,3458.9
14.7819,3284.41
14.8479,3210.92
14.9139,3016.53
14.9799,2881.291
15.0459,2838.23
15.1119,2807.154
15.1779,2841.1
15.2439,2831.84
15.3099,2672.1
15.3759,2643.5
15.4419,2600.404
15.5079,2637.66
15.5739,2475.48
15.6399,2545.01
15.7059,2599.69
15.7719,2582.75
15.8379,2616.81
15.9039,2597.68
15.9699,2536.45
16.0359,2626
16.1019,2661.71
16.1679,2602.56
16.2339,2530.87
16.2999,2475.63
16.3659,2450
16.4319,2384.53
16.4979,2403.5
16.5639,2397.96
16.6299,2403.44
16.6959,2446.21
16.7619,2377.124
16.8279,2382.85
16.8939,2388.98
16.9599,2371.13
17.0259,2409.81
17.0919,2389.25
17.1579,2319.05
17.2239,2318.73
17.2899,2357.54
17.3559,2416.93
17.4219,2373.9
17.4879,2349.16
17.5539,2336.69
17.6199,2284.7
17.6859,2197.93
17.7519,2247.19
17.8179,2278.03
17.8839,2319.84
17.9499,2340.8
18.0159,2260.86
18.0819,2249.71
18.1479,2224.23
18.2139,2231.92
18.2799,2242.69
18.3459,2176.11
18.4119,2308.36
18.4779,2202
18.5439,2231.88
18.6099,2135.53
18.6759,2224.84
18.7419,2255.6
18.8079,2097.19
18.8739,2226.96
18.9399,2155.2
19.0059,2177.85
19.0719,2245.11
19.1379,2235.52
19.2039,2180.34
19.2699,2086.866
19.3359,2250.52
19.4019,2128.81
19.4679,2250.64
19.5339,2136.35
19.5999,2148.12
19.6659,2194.72
19.7319,2148.229
19.7979,2163.31
19.8639,2246.76
19.9299,2272.98
19.9959,2144.117
20.0619,2182.43
20.1279,2233.52
20.1939,2199.81
20.2599,2258.846
20.3259,2250.54
20.3919,2267.67
20.4579,2204.45
20.5239,2289.24
20.5899,2440.29
20.6559,2542.28
20.7219,2427.8
20.7879,2303.46
20.8539,2265.37
20.9199,2211.7
20.9859,2338.71
21.0519,2215.79
21.1179,2204.38
21.1839,2240
21.2499,2247.45
21.3159,2310.39
21.3819,2306.17
21.4479,2177.824
21.5139,2337.181
21.5799,2264.7
21.6459,2160.75
21.7119,2271.45
21.7779,2314.46
21.8439,2444.45
21.9099,2322.47
21.9759,2375.84
22.0419,2297.31
22.1079,2338.35
22.1739,2364.36
22.2399,2413.91
22.3059,2478.37
22.3719,2488.33
22.4379,2645.29
22.5039,2812.29
22.5699,2916.17
22.6359,3062.35
22.7019,3307.249
22.7679,3606.081
22.8339,3948.52
22.8999,4323.97
22.9659,4816.41
23.0319,5425.3
23.0979,5821.71
23.1639,5892.26
23.2299,5628.09
23.2959,5325.27
23.3619,5021.94
23.4279,4980.9
23.4939,4919.59
23.5599,4818.07
23.6259,4718.35
23.6919,4714.05
23.7579,4754.75
23.8239,4618.38
23.8899,4491.703
23.9559,4478.17
24.0219,4552.31
24.0879,4568.03
24.1539,4938.93
24.2199,6152.22
24.2859,8225.56
24.3519,6097.75
24.4179,4510.884
24.4839,4568.43
24.5499,4309.24
24.6159,4020.85
24.6819,4037.05
24.7479,4075.32
24.8139,3913.21
24.8799,3943.85
24.9459,3844.16
25.0119,3770.17
25.0779,3745.23
25.1439,3673.58
25.2099,3614.97
25.2759,3549.96
25.3419,3501.81
25.4079,3520.2
25.4739,3474.63
25.5399,3653.9
25.6059,3940.01
25.6719,4112.657
25.7379,3597.33
25.8039,3351.49
25.8699,3483.06
25.9359,3340.88
26.0019,3308.37
26.0679,3335.17
26.1339,3310.82
26.1999,3347.87
26.2659,3191.25
26.3319,3195.38
26.3979,3235.27
26.4639,3122.49
26.5299,3243.13
26.5959,3271.46
26.6619,3260.61
26.7279,3262.25
26.7939,3352.27
26.8599,3321.7
26.9259,3205.07
26.9919,3300.94
27.0579,3208.819
27.1239,3105.02
27.1899,3080.85
27.2559,3188.87
27.3219,3213.03
27.3879,3350.28
27.4539,3469.17
27.5199,3194.12
27.5859,3161.59
27.6519,3134.321
27.7179,3189.528
27.7839,3231.34
27.8499,3094.93
27.9159,3197.383
27.9819,3195.44
28.0479,3206.15
28.1139,3354.97
28.1799,3449.86
28.2459,3654.99
28.3119,3730.87
28.3779,3474.98
28.4439,3353.24
28.5099,3272.95
28.5759,3363.89
28.6419,3713.778
28.7079,3865.94
28.7739,4253.67
28.8399,4770.89
28.9059,5461.24
28.9719,6155.48
29.0379,5777.8
29.1039,5058.42
29.1699,4512.86
29.2359,4212.883
29.3019,4017.93
29.3679,3942.16
29.4339,3873.44
29.4999,3960.53
29.5659,3788.3
29.6319,3788.02
29.6979,3750.83
29.7639,4051.79
29.8299,3992.16
29.8959,3516.11
29.9619,3266.03
30.0279,3087.76
30.0939,3052.993
30.1599,2933.83
30.2259,2945.23
30.2919,2917.01
30.3579,3004.19
30.4239,2966
30.4899,2929.74
30.5559,3011.05
30.6219,3139.69
30.6879,3195.82
30.7539,3704.778
30.8199,3840.05
30.8859,4615.424
30.9519,7227.47
31.0179,16299
31.0839,13657.7
31.1499,6441.29
31.2159,3800.69
31.2819,3441.72
31.3479,3131.94
31.4139,3029.06
31.4799,3079.31
31.5459,3285.68
31.6119,2993.65
31.6779,2838.54
31.7439,2758.46
31.8099,2841.52
31.8759,3010.48
31.9419,3461.36
32.0079,3852.99
32.0739,3535.4
32.1399,2857
32.2059,2772.96
32.2719,2984.61
32.3379,3132.51
32.4039,3193.4
32.4699,3549.22
32.5359,3963.73
32.6019,3980.07
32.6679,3261.53
32.7339,2777.47
32.7999,2677.41
32.8659,2680.82
32.9319,2651.71
32.9979,2566.48
33.0639,2385.3
33.1299,2346.41
33.1959,2358.96
33.2619,2292.63
33.3279,2302.78
33.3939,2304.17
33.4599,2240.42
33.5259,2217.71
33.5919,2161.67
33.6579,2208.25
33.7239,2225.91
33.7899,2157.86
33.8559,2262.22
33.9219,2189.26
33.9879,2142.18
34.0539,2150.09
34.1199,2059.96
34.1859,2144.25
34.2519,2110.65
34.3179,2203.42
34.3839,2344.12
34.4499,2161.44
34.5159,2272.62
34.5819,2255.52
34.6479,2307
34.7139,2315.22
34.7799,2287.6
34.8459,2314.992
34.9119,2254.204
34.9779,2220.58
35.0439,2225.07
35.1099,2207.03
35.1759,2215.95
35.2419,2171.49
35.3079,2184.86
35.3739,2010.9
35.4399,2177.49
35.5059,2290.36
35.5719,2374.46
35.6379,2200.2
35.7039,1972.04
35.7699,2022.49
35.8359,2095.57
35.9019,2085.34
35.9679,2065.22
36.0339,2002.14
36.0999,2018.89
36.1659,1904.5
36.2319,1922.97
36.2979,1907.68
36.3639,1971.1
36.4299,2077.52
36.4959,2092.44
36.5619,2065.73
36.6279,1966.39
36.6939,1906.08
36.7599,1924.55
36.8259,1939.08
36.8919,1993.44
36.9579,2300.61
37.0239,2304.37
37.0899,2096.31
37.1559,1950.36
37.2219,1856.34
37.2879,1846.42
37.3539,1868.47
37.4199,1851.69
37.4859,1839.82
37.5519,1774.33
37.6179,1742.83
37.6839,1822.22
37.7499,1888.1
37.8159,1826.3
37.8819,1818.068
37.9479,1728.15
38.0139,1698.38
38.0799,1731.9
38.1459,1711.53
38.2119,1747.297
38.2779,1740.44
38.3439,1667.61
38.4099,1736.34
38.4759,1672.91
38.5419,1693.05
38.6079,1717.9
38.6739,1707.15
38.7399,1703.96
38.8059,1741.12
38.8719,1726.53
38.9379,1749.546
39.0039,1761.12
39.0699,1718.57
39.1359,1669.54
39.2019,1700.62
39.2679,1593.05
39.3339,1586.36
39.3999,1709.67
39.4659,1715.17
39.5319,1749.46
39.5979,1786.82
39.6639,1747.92
39.7299,1728.78
39.7959,1815.96
39.8619,1865.09
39.9279,2005.23
39.9939,2022.45
40.0599,2080.04
40.1259,2054.56
40.1919,2235.08
40.2579,2242.04
40.3239,2386.228
40.3899,2404.04
40.4559,2554.48
40.5219,2635.59
40.5879,2767.63
40.6539,2945.59
40.7199,3180.32
40.7859,3358.48
40.8519,3520.58
40.9179,3331.18
40.9839,3215.58
41.0499,3011.04
41.1159,2833.09
41.1819,2673.89
41.2479,2706.7
41.3139,2781.24
41.3799,2654.85
41.4459,2673.77
41.5119,2733.16
41.5779,2606.9
41.6439,2680.25
41.7099,2531.33
41.7759,2702.84
41.8419,2738.3
41.9079,2816.51
41.9739,2803.25
42.0399,2855.56
42.1059,2716.85
42.1719,2618.031
42.2379,2484.61
42.3039,2321.6
42.3699,2383.81
42.4359,2294.44
42.5019,2324.63
42.5679,2395.7
42.6339,2615.97
42.6999,3024.2
42.7659,2700.32
42.8319,2526.13
42.8979,2322.63
42.9639,2341.24
43.0299,2284.44
43.0959,2273.68
43.1619,2290.01
43.2279,2388.05
43.2939,2323.91
43.3599,2224.38
43.4259,2267.14
43.4919,2245.34
43.5579,2242.89
43.6239,2231.3
43.6899,2339.82
43.7559,2368
43.8219,2288.7
43.8879,2337.165
43.9539,2390.35
44.0199,2514.46
44.0859,2608.83
44.1519,2563.28
44.2179,2437.18
44.2839,2450
44.3499,2373.28
44.4159,2370.68
44.4819,2333.68
44.5479,2407.03
44.6139,2406.43
44.6799,2505.47
44.7459,2487.71
44.8119,2773.31
44.8779,2876.18
44.9439,2858.37
45.0099,2698.94
45.0759,2665.63
45.1419,2500.43
45.2079,2447.7
45.2739,2301.84
45.3399,2245.89
45.4059,2240.83
45.4719,2246.13
45.5379,2249.661
45.6039,2126.09
45.6699,2179.51
45.7359,2204.39
45.8019,2221.55
45.8679,2221.31
45.9339,2237.46
45.9999,2186.606
46.0659,2254.65
46.1319,2681.41
46.1979,2757.05
46.2639,2468.361
46.3299,2073.034
46.3959,1906.499
46.4619,1771.14
46.5279,1792.63
46.5939,1777.98
46.6599,1767.06
46.7259,1745.44
46.7919,1729.43
46.8579,1803.68
46.9239,1778.15
46.9899,1768.4
47.0559,1877.82
47.1219,2023.52
47.1879,1931.5
47.2539,1895.46
47.3199,1793.26
47.3859,1675.413
47.4519,1695.51
47.5179,1698.39
47.5839,1692.36
47.6499,1672.19
47.7159,1659.36
47.7819,1722.28
47.8479,1708.33
47.9139,1675.02
47.9799,1690.07
48.0459,1604.25
48.1119,1753.8
48.1779,1734.33
48.2439,1733.52
48.3099,1651.02
48.3759,1668.62
48.4419,1690.62
48.5079,1643.12
48.5739,1683.52
48.6399,1613.37
48.7059,1629.295
48.7719,1692.92
48.8379,1601.7
48.9039,1726.67
48.9699,1782.346
49.0359,1729.69
49.1019,1685.65
49.1679,1645.68
49.2339,1560.81
49.2999,1606.71
49.3659,1517.62
49.4319,1606.09
49.4979,1627.37
49.5639,1607.52
49.6299,1788.12
49.6959,2192.46
49.7619,2301.13
49.8279,1949.15
49.8939,1736.301
49.9599,1608.02
50.0259,1504.42
50.0919,1559.53
50.1579,1567.84
50.2239,1459.22
50.2899,1468.5
50.3559,1451.56
50.4219,1510.49
50.4879,1476.87
50.5539,1440.38
50.6199,1487.26
50.6859,1469.71
50.7519,1432.76
50.8179,1427.9
50.8839,1451.81
50.9499,1503.99
51.0159,1483.72
51.0819,1462.61
51.1479,1452.64
51.2139,1445.49
51.2799,1408.28
51.3459,1455.33
51.4119,1476.08
51.4779,1423.35
51.5439,1411.05
51.6099,1449.8
51.6759,1434.36
51.7419,1453.288
51.8079,1449.89
51.8739,1378.929
51.9399,1382.98
52.0059,1368.5
52.0719,1381.01
52.1379,1417.39
52.2039,1416.21
52.2699,1419.13
52.3359,1415.26
52.4019,1472.39
52.4679,1427.998
52.5339,1515.568
52.5999,1439.27
52.6659,1439.76
52.7319,1461.62
52.7979,1487.46
52.8639,1558.04
52.9299,1587.46
52.9959,1579.64
53.0619,1608.92
53.1279,1709.84
53.1939,1792.87
53.2599,1964.85
53.3259,1997.96
53.3919,1909.03
53.4579,1791.36
53.5239,1743.11
53.5899,1693.5
53.6559,1861.9
53.7219,1990.34
53.7879,1723.436
53.8539,1700.56
53.9199,1602.08
53.9859,1527.699
54.0519,1524.81
54.1179,1518.07
54.1839,1488.04
54.2499,1471.13
54.3159,1393.77
54.3819,1453.31
54.4479,1498.78
54.5139,1468.67
54.5799,1451.34
54.6459,1478.59
54.7119,1472.12
54.7779,1469.888
54.8439,1482.487
54.9099,1443.33
54.9759,1453.11
55.0419,1462.99
55.1079,1464.72
55.1739,1468.75
55.2399,1478.15
55.3059,1454.72
55.3719,1454.4
55.4379,1439.343
55.5039,1421.18
55.5699,1409.46
55.6359,1418.04
55.7019,1423.78
55.7679,1394.66
55.8339,1370
55.8999,1354.36
55.9659,1443.25
56.0319,1360.99
56.0979,1387.07
56.1639,1420.315
56.2299,1458.15
56.2959,1486.44
56.3619,1497.27
56.4279,1442.75
56.4939,1472.39
56.5599,1366.46
56.6259,1407.38
56.6919,1396.36
56.7579,1384.04
56.8239,1331.01
56.8899,1378.49
56.9559,1333.72
57.0219,1286.47
57.0879,1303.47
57.1539,1275
57.2199,1361.11
57.2859,1311.35
57.3519,1338.44
57.4179,1206.79
57.4839,1322.01
57.5499,1272.13
57.6159,1306.53
57.6819,1315.19
57.7479,1362.65
57.8139,1377.06
57.8799,1430.66
57.9459,1323.49
58.0119,1308.68
58.0779,1265.33
58.1439,1346.01
58.2099,1306.11
58.2759,1284.76
58.3419,1273
58.4079,1293.96
58.4739,1305.333
58.5399,1388.52
58.6059,1353.63
58.6719,1355.3
58.7379,1357.81
58.8039,1394.89
58.8699,1687.67
58.9359,2487.9
59.0019,1906.236
59.0679,1867.43
59.1339,1560.22
59.1999,1257.97
59.2659,1348.85
59.3319,1336.22
59.3979,1430.13
59.4639,1414.28
59.5299,1512.79
59.5959,1402.11
59.6619,1375.747
59.7279,1303.65
59.7939,1281.66
59.8599,1331.268
59.9259,1309.6
59.9919,1309.32
60.0579,1303.92
60.1239,1389.52
60.1899,1344.2
60.2559,1296.12
60.3219,1351.42
60.3879,1278.62
60.4539,1198.72
60.5199,1174.27
60.5859,1164.03
60.6519,1164.7
60.7179,1168.09
60.7839,1238.922
60.8499,1199.83
60.9159,1175.56
60.9819,1128.77
61.0479,1141.26
61.1139,1201.36
61.1799,1164.99
61.2459,1124.42
61.3119,1228.86
61.3779,1130.25
61.4439,1197.99
61.5099,1215.64
61.5759,1170.73
61.6419,1213.3
61.7079,1280.1
61.7739,1554.75
61.8399,1953.83
61.9059,1917.61
61.9719,1706.331
62.0379,1527.03
62.1039,1355.91
62.1699,1255.85
62.2359,1251.24
62.3019,1201.455
62.3679,1275.79
62.4339,1234.86
62.4999,1253
62.5659,1278.39
62.6319,1290.18
62.6979,1280.25
62.7639,1291.29
62.8299,1288.54
62.8959,1313.9
62.9619,1276
63.0279,1268
63.0939,1277.33
63.1599,1313.03
63.2259,1363.26
63.2919,1398.72
63.3579,1413.75
63.4239,1366.14
63.4899,1430.09
63.5559,1458.1
63.6219,1466.345
63.6879,1471.5
63.7539,1485.93
63.8199,1492.184
63.8859,1572.94
63.9519,1590.98
64.0179,1645.37
64.0839,1566.2
64.1499,1595.28
64.2159,1611.507
64.2819,1543.6
64.3479,1590.58
64.4139,1655.11
64.4799,1622.31
64.5459,1714.603
64.6119,1830.644
64.6779,2062.96
64.7439,2016.47
64.8099,1987.85
64.8759,1944.96
64.9419,1799.01
65.0079,1806.11
65.0739,1727.94
65.1399,1807.572
65.2059,1835.98
65.2719,1835.45
65.3379,1669.64
65.4039,1759.35
65.4699,1626.11
65.5359,1504.02
65.6019,1595.89
65.6679,1553.43
65.7339,1556.11
65.7999,1537.76
65.8659,1510.98
65.9319,1509.67
65.9979,1518.01
66.0639,1515.494
66.1299,1488.65
66.1959,1517.58
66.2619,1408.95
66.3279,1465.94
66.3939,1480.41
66.4599,1403.759
66.5259,1425.3
66.5919,1510.91
66.6579,1475.86
66.7239,1498.88
66.7899,1461.64
66.8559,1430.88
66.9219,1419.7
66.9879,1390.36
67.0539,1411.774
67.1199,1423.28
67.1859,1408.15
67.2519,1367.48
67.3179,1320.5
67.3839,1324.2
67.4499,1312.953
67.5159,1318.96
67.5819,1326.83
67.6479,1266.49
67.7139,1280.55
67.7799,1332.3
67.8459,1275.707
67.9119,1207.182
67.9779,1229.82
68.0439,1304.9
68.1099,1296.18
68.1759,1235.72
68.2419,1208.83
68.3079,1279.16
68.3739,1235.79
68.4399,1223.18
68.5059,1224.4
68.5719,1274.93
68.6379,1247.72
68.7039,1248.21
68.7699,1263.07
68.8359,1226.21
68.9019,1244.37
68.9679,1195.6
69.0339,1213.16
69.0999,1222.18
69.1659,1248.24
69.2319,1176.85
69.2979,1237.83
69.3639,1237.13
69.4299,1202.62
69.4959,1184.78
69.5619,1229.5
69.6279,1182.15
69.6939,1156.42
69.7599,1214.07
69.8259,1171.27
69.8919,1124.82
69.9579,1218.8
70.0239,1225.75
70.0899,1217.04
70.1559,1245.06
70.2219,1210.07
70.2879,1255.53
70.3539,1198.07
70.4199,1284.47
70.4859,1287.6
70.5519,1234.32
70.6179,1235.48
70.6839,1230.51
70.7499,1303.85
70.8159,1438.81
70.8819,1939.07
70.9479,2140.72
71.0139,1612.56
71.0799,1700.63
71.1459,1547.66
71.2119,1408.57
71.2779,1320.31
71.3439,1331.99
71.4099,1326.04
71.4759,1293.92
71.5419,1306.44
71.6079,1280.89
71.6739,1287.37
71.7399,1370.13
71.8059,1351.72
71.8719,1330.47
71.9379,1309.88
72.0039,1292.62
72.0699,1278.96
72.1359,1409.28
72.2019,1333.2
72.2679,1380.83
72.3339,1377.544
72.3999,1406.93
72.4659,1393.118
72.5319,1428.68
72.5979,1471.86
72.6639,1448.58
72.7299,1461.48
72.7959,1475.63
72.8619,1564.39
72.9279,1605.339
72.9939,1522.95
73.0599,1571.09
73.1259,1577.47
73.1919,1639.03
73.2579,1691.54
73.3239,1685.852
73.3899,1736.44
73.4559,1819.24
73.5219,1769.18
73.5879,1876.97
73.6539,1933.18
73.7199,2117.967
73.7859,2072.69
73.8519,2078.06
73.9179,1940.09
73.9839,1959.38
74.0499,1828.92
74.1159,1720.5
74.1819,1645.58
74.2479,1565.39
74.3139,1483.38
74.3799,1480.05
74.4459,1437.535
74.5119,1360.38
74.5779,1399.66
74.6439,1376.34
74.7099,1379.58
74.7759,1301.78
74.8419,1289.89
74.9079,1267.85
74.9739,1307.8
75.0399,1286.697
75.1059,1330.18
75.1719,1224.32
75.2379,1340.8
75.3039,1308.2
75.3699,1299.054
75.4359,1295.94
75.5019,1244.17
75.5679,1312.21
75.6339,1286.13
75.6999,1404.21
75.7659,1270.58
75.8319,1375.9
75.8979,1361.33
75.9639,1438.636
76.0299,1411.71
76.0959,1312.44
76.1619,1310.06
76.2279,1322.23
76.2939,1228.34
76.3599,1201.59
76.4259,1165.54
76.4919,1173.87
76.5579,1153.42
76.6239,1180.7
76.6899,1133.9
76.7559,1197.92
76.8219,1133.789
76.8879,1140.08
76.9539,1213
77.0199,1124.148
77.0859,1129.37
77.1519,1176.91
77.2179,1143.074
77.2839,1173.16
77.3499,1188.34
77.4159,1201.61
77.4819,1190.93
77.5479,1199.96
77.6139,1213.26
77.6799,1155
77.7459,1169.52
77.8119,1134.17
77.8779,1139.697
77.9439,1112.968
78.0099,1093.91
78.0759,1124.41
78.1419,1092.29
78.2079,1132.87
78.2739,1138.69
78.3399,1103.58
78.4059,1090.03
78.4719,1099.92
78.5379,1097.41
78.6039,1116.88
78.6699,1084.55
78.7359,1165.66
78.8019,1166.85
78.8679,1109.22
78.9339,1066.85
78.9999,1129.97
79.0659,1141.9
79.1319,1159.644
79.1979,1099.994
79.2639,1100.56
79.3299,1121.17
79.3959,1063.44
79.4619,1084.37
79.5279,1099.91
79.5939,1128.71
79.6599,1101
79.7259,1112.86
79.7919,1129.28
79.8579,1166.11
79.2419,1043.49
79.3079,1041.49
79.3739,1106.93
79.4399,1142.5
79.5059,1059.77
79.5719,1091.32
79.6379,1071.96
79.6599,1120.29