File: RP-XRD-S2-2022/S17.csv
Pos. [°2?],Intensity [Counts]
3.7819,17177
3.8479,16374.1
3.9139,15466.5
3.9799,14853.2
4.0459,13874.6
4.1119,13394.8
4.1779,12668.5
4.2439,12174
4.3099,11612.8
4.3759,10768.7
4.4419,10439.3
4.5079,9911.47
4.5739,9609.31
4.6399,9103.91
4.7059,8674.2
4.7719,8330.31
4.8379,8009.96
4.9039,7697.17
4.9699,7467.92
5.0359,7082.77
5.1019,6823.39
5.1679,6460.96
5.2339,6420.43
5.2999,6200.44
5.3659,6096.21
5.4319,5848.08
5.4979,5784.469
5.5639,5595.06
5.6299,5611.06
5.6959,5387.95
5.7619,5216.94
5.8279,5182.59
5.8939,5139.19
5.9599,4942.66
6.0259,4966.13
6.0919,5030.649
6.1579,4909.37
6.2239,4810.89
6.2899,4786.04
6.3559,4850.27
6.4219,4738.51
6.4879,4654.205
6.5539,4631.354
6.6199,4634.78
6.6859,4556.6
6.7519,4528.292
6.8179,4522.16
6.8839,4461.87
6.9499,4476.54
7.0159,4429.37
7.0819,4282.82
7.1479,4300.47
7.2139,4265.45
7.2799,4177.16
7.3459,4287.42
7.4119,4207.2
7.4779,4197.88
7.5439,4187.02
7.6099,4171.04
7.6759,4066.09
7.7419,4093.06
7.8079,4006.14
7.8739,4010.62
7.9399,3956.69
8.0059,3900.13
8.0719,3843.854
8.1379,3893.81
8.2039,3853.95
8.2699,3936
8.3359,3755.13
8.4019,3759.88
8.4679,3874.18
8.5339,3733.27
8.5999,3707.64
8.6659,3781.67
8.7319,3734.74
8.7979,3787.02
8.8639,3712.22
8.9299,3582.6
8.9959,3646.13
9.0619,3544.2
9.1279,3621.26
9.1939,3574.64
9.2599,3539.59
9.3259,3518.21
9.3919,3547.19
9.4579,3543.8
9.5239,3480.27
9.5899,3522.75
9.6559,3557.17
9.7219,3472.44
9.7879,3473.21
9.8539,3579.93
9.9199,3494.42
9.9859,3504.56
10.0519,3544.73
10.1179,3515.4
10.1839,3561.062
10.2499,3640.04
10.3159,3953.208
10.3819,3659.92
10.4479,3337.2
10.5139,3378.354
10.5799,3341.472
10.6459,3227.44
10.7119,3240.82
10.7779,3241.32
10.8439,3276.78
10.9099,3300.531
10.9759,3333.37
11.0419,3211.88
11.1079,3210.36
11.1739,3185.46
11.2399,3200.17
11.3059,3108.354
11.3719,3148.3
11.4379,3130.86
11.5039,3093.24
11.5699,3014.85
11.6359,3022.78
11.7019,3106.71
11.7679,3027.69
11.8339,3129.826
11.8999,3049.08
11.9659,3019.2
12.0319,3125.99
12.0979,3088.57
12.1639,3065.76
12.2299,3083.17
12.2959,2977.49
12.3619,3048.2
12.4279,3025.68
12.4939,3018.72
12.5599,2977.357
12.6259,3056.57
12.6919,2960.62
12.7579,2865.5
12.8239,3047.97
12.8899,2947.22
12.9559,2965.05
13.0219,2900.003
13.0879,2945.177
13.1539,2931.44
13.2199,2944.36
13.2859,2971.2
13.3519,2984.91
13.4179,3015.27
13.4839,2916.39
13.5499,3013.2
13.6159,3036.8
13.6819,2974.58
13.7479,3106.42
13.8139,3109.55
13.8799,3148.81
13.9459,3294.02
14.0119,3344.78
14.0779,3450.58
14.1439,3647.73
14.2099,3952.068
14.2759,4148.78
14.3419,4486.27
14.4079,4505.401
14.4739,4038.74
14.5399,3467.34
14.6059,3171.97
14.6719,2970.81
14.7379,2955.99
14.8039,2699.69
14.8699,2707.35
14.9359,2694.16
15.0019,2559.99
15.0679,2616.16
15.1339,2524.994
15.1999,2533.88
15.2659,2516.96
15.3319,2539.93
15.3979,2478.73
15.4639,2494.93
15.5299,2513.03
15.5959,2396.57
15.6619,2423.61
15.7279,2548.32
15.7939,2571.58
15.8599,2779.43
15.9259,2845.81
15.9919,2479.7
16.0579,2611.96
16.1239,2808.9
16.1899,2830.54
16.2559,2480.75
16.3219,2387.2
16.3879,2242.37
16.4539,2277.46
16.5199,2204.26
16.5859,2267.357
16.6519,2229.38
16.7179,2204.16
16.7839,2248.24
16.8499,2196.87
16.9159,2220.9
16.9819,2208.64
17.0479,2161.77
17.1139,2112.45
17.1799,2182.28
17.2459,2161.89
17.3119,2172.497
17.3779,2206.25
17.4439,2219.29
17.5099,2146.363
17.5759,2266.99
17.6419,2126.57
17.7079,1995.736
17.7739,1982.38
17.8399,2074.6
17.9059,1965.53
17.9719,2087.78
18.0379,2034.76
18.1039,2077.85
18.1699,2041.38
18.2359,1993.19
18.3019,1949.04
18.3679,2059.59
18.4339,2067.81
18.4999,1980.54
18.5659,2052.83
18.6319,1942.32
18.6979,1947
18.7639,1930.08
18.8299,1932.44
18.8959,1954.59
18.9619,1923.15
19.0279,1904.01
19.0939,1942.04
19.1599,1923.76
19.2259,1929.21
19.2919,1930.55
19.3579,1939.26
19.4239,1822.02
19.4899,1903.29
19.5559,1904.38
19.6219,1823.66
19.6879,1913.82
19.7539,1858.37
19.8199,1828.4
19.8859,1897.17
19.9519,1876.9
20.0179,1852.584
20.0839,1904.09
20.1499,1846.05
20.2159,1883.8
20.2819,1899.56
20.3479,1835.75
20.4139,1917.19
20.4799,1903.99
20.5459,1997.49
20.6119,1874.13
20.6779,2041.6
20.7439,1955.53
20.8099,1912.09
20.8759,1944.06
20.9419,2002.79
21.0079,1857.73
21.0739,1843.12
21.1399,1904.95
21.2059,1860.51
21.2719,1869.57
21.3379,1832.24
21.4039,1819.947
21.4699,1822.4
21.5359,1719.06
21.6019,1773.14
21.6679,1793.91
21.7339,1826.86
21.7999,1770.74
21.8659,1743.75
21.9319,1841.42
21.9979,1932.55
22.0639,1853.14
22.1299,1828.23
22.1959,1786.739
22.2619,1811.416
22.3279,1796.48
22.3939,1822.14
22.4599,1872.56
22.5259,1856.4
22.5919,1829.92
22.6579,1948.829
22.7239,1974.37
22.7899,2043.96
22.8559,2129.1
22.9219,2143.33
22.9879,2329.94
23.0539,2580.95
23.1199,2642.43
23.1859,2754.06
23.2519,2707.04
23.3179,2557.05
23.3839,2455.3
23.4499,2544.17
23.5159,2429.92
23.5819,2395.416
23.6479,2398.26
23.7139,2496.6
23.7799,2505.63
23.8459,2663.98
23.9119,2608.09
23.9779,2629.779
24.0439,2946.73
24.1099,3840.64
24.1759,6293.92
24.2419,13795.1
24.3079,26924.8
24.3739,12972.292
24.4399,4179.756
24.5059,3935.63
24.5719,3150.38
24.6379,2658.8
24.7039,2548.87
24.7699,2541.09
24.8359,2324.2
24.9019,2302.87
24.9679,2293.73
25.0339,2292.23
25.0999,2168.58
25.1659,2048.14
25.2319,2160.5
25.2979,2104.888
25.3639,2078.208
25.4299,2145.92
25.4959,2188.37
25.5619,2585.054
25.6279,3656.48
25.6939,3032.914
25.7599,2300.65
25.8259,2090.22
25.8919,2084.58
25.9579,2162.78
26.0239,2236.62
26.0899,2056.78
26.1559,2044.5
26.2219,1973.74
26.2879,2051.32
26.3539,2112.65
26.4199,2002.51
26.4859,1862.27
26.5519,1876.69
26.6179,1961.97
26.6839,1965.87
26.7499,2017.88
26.8159,2126.17
26.8819,2269
26.9479,2160.22
27.0139,2258.45
27.0799,2160.96
27.1459,2065.74
27.2119,1975.19
27.2779,1913.35
27.3439,2057.08
27.4099,2417.59
27.4759,2796.83
27.5419,2461.4
27.6079,2153.34
27.6739,1970.8
27.7399,2013.332
27.8059,2061.51
27.8719,2076.98
27.9379,2261.22
28.0039,2373.91
28.0699,2702.71
28.1359,2735.43
28.2019,2477.05
28.2679,2607.75
28.3339,2641.6
28.3999,2328.93
28.4659,2119.67
28.5319,2064.67
28.5979,2008.09
28.6639,2075.07
28.7299,2129.345
28.7959,2395.17
28.8619,2425.11
28.9279,2687.87
28.9939,2811.75
29.0599,2966.62
29.1259,2561.39
29.1919,2343.03
29.2579,2272.01
29.3239,2196.05
29.3899,2107.08
29.4559,2251.78
29.5219,2189.33
29.5879,2180.89
29.6539,2157
29.7199,2322.27
29.7859,2557.7
29.8519,2454.72
29.9179,2409.35
29.9839,2042
30.0499,1895.17
30.1159,1781.45
30.1819,1834.88
30.2479,1932.093
30.3139,2006.7
30.3799,2170
30.4459,2214.34
30.5119,2549.95
30.5779,2747.5
30.6439,3285.56
30.7099,3600.16
30.7759,4503.71
30.8419,5724.95
30.9079,10895.2
30.9739,25871.5
31.0399,97337
31.1059,114144
31.1719,44821.7
31.2379,6977.97
31.3039,4726.21
31.3699,4043.93
31.4359,3594.23
31.5019,3165.52
31.5679,3393.55
31.6339,2971.49
31.6999,2423.774
31.7659,2269.41
31.8319,2444.32
31.8979,2918.64
31.9639,4575.7
32.0299,9605.07
32.0959,8940.67
32.1619,4427.34
32.2279,2609.43
32.2939,2699.72
32.3599,3587.114
32.4259,3489.86
32.4919,3605.6
32.5579,4772.13
32.6239,6269.237
32.6899,8451.07
32.7559,5279.51
32.8219,3299.03
32.8879,3110.367
32.9539,2499.06
33.0199,2195.67
33.0859,1824.62
33.1519,1749.77
33.2179,1705.49
33.2839,1659.916
33.3499,1675
33.4159,1643.86
33.4819,1604.37
33.5479,1564.06
33.6139,1574
33.6799,1582.9
33.7459,1575.09
33.8119,1558.93
33.8779,1629.77
33.9439,1621.549
34.0099,1594.73
34.0759,1522.69
34.1419,1597.39
34.2079,1556.87
34.2739,1678.292
34.3399,1851.89
34.4059,1646.18
34.4719,1615.1
34.5379,1518.73
34.6039,1584.69
34.6699,1573.78
34.7359,1559.2
34.8019,1639.22
34.8679,1658.19
34.9339,1538.01
34.9999,1571.85
35.0659,1691.35
35.1319,1841.25
35.1979,1762
35.2639,1817.3
35.3299,1704.3
35.3959,1614.38
35.4619,1621.27
35.5279,1772.02
35.5939,1880.36
35.6599,1671.95
35.7259,1602.478
35.7919,1537.46
35.8579,1707.78
35.9239,1624
35.9899,1721.84
36.0559,1616.85
36.1219,1452.17
36.1879,1405.36
36.2539,1363.04
36.3199,1370.966
36.3859,1424.01
36.4519,1467.11
36.5179,1471.54
36.5839,1417.51
36.6499,1444.93
36.7159,1435.02
36.7819,1461.1
36.8479,1358.04
36.9139,1319.37
36.9799,1358.43
37.0459,1320.43
37.1119,1309.9
37.1779,1333.49
37.2439,1278.48
37.3099,1248.93
37.3759,1313.283
37.4419,1347.49
37.5079,1319.62
37.5739,1458.02
37.6399,1426.478
37.7059,1374.15
37.7719,1332.89
37.8379,1388.67
37.9039,1381.59
37.9699,1371.7
38.0359,1384.26
38.1019,1316.55
38.1679,1193.6
38.2339,1232.44
38.2999,1234.93
38.3659,1312.31
38.4319,1265.98
38.4979,1300.84
38.5639,1397.7
38.6299,1409.91
38.6959,1625.84
38.7619,1733.12
38.8279,1630.58
38.8939,1441.56
38.9599,1329.59
39.0259,1274.04
39.0919,1270.28
39.1579,1241.44
39.2239,1238.16
39.2899,1214.86
39.3559,1222.14
39.4219,1192.56
39.4879,1304.14
39.5539,1223.811
39.6199,1345.34
39.6859,1241.23
39.7519,1270.33
39.8179,1257.27
39.8839,1333.29
39.9499,1429.71
40.0159,1554.92
40.0819,1423.56
40.1479,1438.15
40.2139,1356.27
40.2799,1342.25
40.3459,1413.21
40.4119,1456.27
40.4779,1478.38
40.5439,1526.78
40.6099,1554.92
40.6759,1567.4
40.7419,1745.52
40.8079,1713.88
40.8739,1818.19
40.9399,1849.99
41.0059,1866.1
41.0719,1754.83
41.1379,1641.82
41.2039,1738.94
41.2699,1740.19
41.3359,1705.05
41.4019,1747.07
41.4679,1875.33
41.5339,1932.829
41.5999,1973.71
41.6659,2019.37
41.7319,1763.37
41.7979,1700.57
41.8639,1592.97
41.9299,1593.57
41.9959,1545.7
42.0619,1635.24
42.1279,1557.86
42.1939,1539.15
42.2599,1539.91
42.3259,1454.19
42.3919,1410.88
42.4579,1493.57
42.5239,1655.12
42.5899,1905.81
42.6559,3600.35
42.7219,8263.79
42.7879,5655.17
42.8539,4436.85
42.9199,1886.95
42.9859,1590.43
43.0519,1468.2
43.1179,1515.69
43.1839,1480.13
43.2499,1512.7
43.3159,1452.14
43.3819,1416.87
43.4479,1360.25
43.5139,1322.42
43.5799,1323.05
43.6459,1448.63
43.7119,1535.44
43.7779,1478.48
43.8439,1447.29
43.9099,1396.11
43.9759,1395.4
44.0419,1447.79
44.1079,1483.41
44.1739,1451.6
44.2399,1335.78
44.3059,1347.65
44.3719,1362.96
44.4379,1320.56
44.5039,1333.52
44.5699,1319.09
44.6359,1285.88
44.7019,1367.05
44.7679,1448.01
44.8339,1499.94
44.8999,1406.47
44.9659,1455.02
45.0319,1454.52
45.0979,1443.8
45.1639,1402.65
45.2299,1366.5
45.2959,1335.28
45.3619,1294.5
45.4279,1304.81
45.4939,1307.42
45.5599,1262.09
45.6259,1373.56
45.6919,1272.81
45.7579,1331.13
45.8239,1338.32
45.8899,1356.73
45.9559,1344.62
46.0219,1440.98
46.0879,1992.03
46.1539,4499.37
46.2199,6033.3
46.2859,3861.91
46.3519,2178.58
46.4179,1343.11
46.4839,1187.99
46.5499,1199.96
46.6159,1111.07
46.6819,1097.67
46.7479,1140.33
46.8139,1093.95
46.8799,1127.48
46.9459,1193.54
47.0119,1321.13
47.0779,1667.6
47.1439,3851.78
47.2099,3898.67
47.2759,3085
47.3419,1660.28
47.4079,1262.3
47.4739,1205.15
47.5399,1133.25
47.6059,1154
47.6719,1127.45
47.7379,1075.64
47.8039,1096.48
47.8699,1219.11
47.9359,1218.04
48.0019,1139.55
48.0679,1143.39
48.1339,1140.35
48.1999,1129.97
48.2659,1209.02
48.3319,1109.84
48.3979,1175.7
48.4639,1124.4
48.5299,1022
48.5959,1116.45
48.6619,1093.21
48.7279,1123.79
48.7939,1104.29
48.8599,1238.69
48.9259,1493.22
48.9919,1592.16
49.0579,1309.31
49.1239,1310.87
49.1899,1173.41
49.2559,1071.671
49.3219,1116.2
49.3879,1132.16
49.4539,1158.52
49.5199,1214.87
49.5859,1359.44
49.6519,2035.23
49.7179,5650.69
49.7839,5716.63
49.8499,4484.01
49.9159,2320.3
49.9819,1453.55
50.0479,1338.17
50.1139,1330.82
50.1799,1645.7
50.2459,1417.106
50.3119,1386.95
50.3779,1167
50.4439,1109.28
50.5099,1111.07
50.5759,1108.997
50.6419,1055.62
50.7079,1032.19
50.7739,982.5396
50.8399,974.3585
50.9059,1021.89
50.9719,1048.36
51.0379,1028.63
51.1039,1056.59
51.1699,1013.45
51.2359,989.4957
51.3019,950.2212
51.3679,892.0266
51.4339,946.5515
51.4999,968.407
51.5659,976.4835
51.6319,1029.79
51.6979,962.947
51.7639,955.342
51.8299,945.2479
51.8959,973.3584
51.9619,956.5311
52.0279,907.9543
52.0939,982.5046
52.1599,885.7467
52.2259,932.1152
52.2919,1039.79
52.3579,977.0764
52.4239,954.1755
52.4899,979.7081
52.5559,961.695
52.6219,943.8912
52.6879,942
52.7539,963.7639
52.8199,962.8704
52.8859,978.6812
52.9519,1047.99
53.0179,1049.18
53.0839,1021.33
53.1499,1051.755
53.2159,1072.82
53.2819,1136.56
53.3479,1269.02
53.4139,1207.24
53.4799,1261.54
53.5459,1221.6
53.6119,1338.64
53.6779,2295.89
53.7439,4766.79
53.8099,2440.2
53.8759,2846.45
53.9419,1348.07
54.0079,1119.311
54.0739,1071.292
54.1399,1041.43
54.2059,1059.28
54.2719,1092.54
54.3379,1082.15
54.4039,978.6194
54.4699,995.3096
54.5359,970.2891
54.6019,961.354
54.6679,965.7257
54.7339,998.7023
54.7999,1004
54.8659,1001.88
54.9319,928.3495
54.9979,953.7729
55.0639,918.5353
55.1299,910.6873
55.1959,919.3097
55.2619,1088.34
55.3279,1162.14
55.3939,1142.41
55.4599,1043.85
55.5259,961.177
55.5919,931.2728
55.6579,925.7255
55.7239,974.6383
55.7899,954.4688
55.8559,921.208
55.9219,912.7934
55.9879,901.5002
56.0539,914.9205
56.1199,925.3345
56.1859,926.8494
56.2519,900.5357
56.3179,927.6581
56.3839,960.6801
56.4499,1014.16
56.5159,994.9954
56.5819,1040.05
56.6479,963.8584
56.7139,963.9644
56.7799,896.1477
56.8459,986.6903
56.9119,881.5394
56.9779,956.8675
57.0439,915.4644
57.1099,886.6433
57.1759,919.8127
57.2419,893.7434
57.3079,942.4793
57.3739,1009.177
57.4399,974.5309
57.5059,1057.38
57.5719,995.3098
57.6379,1032.67
57.7039,922.3851
57.7699,971.5133
57.8359,1014
57.9019,940.4957
57.9679,988.6372
58.0339,1025.31
58.0999,1019.69
58.1659,1048.32
58.2319,1023.73
58.2979,994.6812
58.3639,1009.98
58.4299,1042.744
58.4959,1042.2
58.5619,1174
58.6279,1322.74
58.6939,1415.14
58.7599,1419.2
58.8259,1808.36
58.8919,3936.61
58.9579,13134.4
59.0239,9556.86
59.0899,7135.28
59.1559,5716.93
59.2219,1734.29
59.2879,1309.57
59.3539,1225.83
59.4199,1543.57
59.4859,1467.13
59.5519,1654.47
59.6179,1285.64
59.6839,1238.31
59.7499,1111.41
59.8159,1029.01
59.8819,1071.6
59.9479,997.491
60.0139,970.2302
60.0799,949.5854
60.1459,904.4427
60.2119,969.3096
60.2779,924.631
60.3439,925.4012
60.4099,920
60.4759,863.032
60.5419,889.8437
60.6079,913.3758
60.6739,847.168
60.7399,853.4615
60.8059,874.1416
60.8719,840.199
60.9379,822.8996
61.0039,806.8801
61.0699,775.3247
61.1359,855.23
61.2019,776.0709
61.2679,805.0382
61.3339,825.8466
61.3999,848.8541
61.4659,859.1329
61.5319,842.264
61.5979,875.6635
61.6639,836.907
61.7299,869.4956
61.7959,862.1194
61.8619,861.4484
61.9279,785.5282
61.9939,871.637
62.0599,914.503
62.1259,875.2269
62.1919,910.0795
62.2579,892.1241
62.3239,869.8052
62.3899,820.5663
62.4559,893.0323
62.5219,876.9732
62.5879,849.0614
62.6539,940.9468
62.7199,868.0957
62.7859,888.5483
62.8519,930.0163
62.9179,901.6904
62.9839,886.1635
63.0499,897.395
63.1159,870.2774
63.1819,843.2037
63.2479,869.1538
63.3139,897.0384
63.3799,900.1813
63.4459,992.6664
63.5119,959.6427
63.5779,965.1155
63.6439,943.7233
63.7099,1028.4
63.7759,1058.265
63.8419,1006.17
63.9079,1065.74
63.9739,999.5838
64.0399,1050.022
64.1059,987.36
64.1719,971.6548
64.2379,953.2745
64.3039,977.8731
64.3699,1108.85
64.4359,1048.07
64.5019,1039.77
64.5679,1188.88
64.6339,1978.719
64.6999,4866.3
64.7659,4064.22
64.8319,2817.24
64.8979,3267.67
64.9639,1522.34
65.0299,1159.36
65.0959,1110.32
65.1619,1127.301
65.2279,1702.21
65.2939,1836.61
65.3599,1319.76
65.4259,1544.91
65.4919,1071.27
65.5579,978.3626
65.6239,915.4437
65.6899,984.9794
65.7559,1020.63
65.8219,901.9968
65.8879,933.0719
65.9539,915.2036
66.0199,883.3423
66.0859,889.5223
66.1519,904.7347
66.2179,904.1915
66.2839,858.8923
66.3499,899.5224
66.4159,884.661
66.4819,888.7018
66.5479,880.013
66.6139,808.1797
66.6799,856.6179
66.7459,813.3629
66.8119,869.3934
66.8779,894.4421
66.9439,909.5313
67.0099,839.9857
67.0759,874.5636
67.1419,881.1065
67.2079,921.901
67.2739,846.5043
67.3399,824.7698
67.4059,876.9055
67.4719,848.1828
67.5379,865.9558
67.6039,1009.22
67.6699,930.1356
67.7359,893.0176
67.8019,920
67.8679,882.2922
67.9339,858.0886
67.9999,876.6138
68.0659,841.5132
68.1319,850.978
68.1979,825.941
68.2639,866.8965
68.3299,827.9737
68.3959,844.5812
68.4619,788.1002
68.5279,799.4869
68.5939,857.2567
68.6599,844.419
68.7259,790.5664
68.7919,856.2372
68.8579,775.9885
68.9239,791.301
68.9899,840.3567
69.0559,899.0515
69.1219,825.3367
69.1879,937.5782
69.2539,868.0945
69.3199,871.9335
69.3859,984.8731
69.4519,909.361
69.5179,857.4337
69.5839,887.4615
69.6499,842.6134
69.7159,850.292
69.7819,800.6195
69.8479,786.7474
69.9139,804.8051
69.9799,847.5945
70.0459,823.8055
70.1119,802.3807
70.1779,784.776
70.2439,844.0811
70.3099,810.5489
70.3759,829.7448
70.4419,843.9474
70.5079,960.5267
70.5739,1068.11
70.6399,1064.65
70.7059,1072.75
70.7719,1281.6
70.8379,1904.81
70.9039,4945.01
70.9699,8613.25
71.0359,3686.39
71.1019,4311.65
71.1679,3886.92
71.2339,1520.1
71.2999,1089.36
71.3659,969.2386
71.4319,939.1503
71.4979,892.4868
71.5639,879.5681
71.6299,799.9439
71.6959,826.7438
71.7619,839.7729
71.8279,894.1398
71.8939,789.0358
71.9599,818.3804
72.0259,845.277
72.0919,808.5088
72.1579,842.1768
72.2239,837.6886
72.2899,837.2125
72.3559,848.3776
72.4219,900.5453
72.4879,850.2571
72.5539,850.0646
72.6199,848.5323
72.6859,836.5663
72.7519,777.1815
72.8179,858.6491
72.8839,827.4294
72.9499,879.3569
73.0159,844.3599
73.0819,890.1419
73.1479,874.4926
73.2139,891
73.2799,935.5488
73.3459,907.4517
73.4119,913.7628
73.4779,926.7522
73.5439,897.9499
73.6099,940.3305
73.6759,967.0487
73.7419,967.2985
73.8079,968.0182
73.8739,1001.88
73.9399,1073.66
74.0059,1024.24
74.0719,1022.75
74.1379,1035.78
74.2039,1019.59
74.2699,1010.22
74.3359,978.538
74.4019,931.283
74.4679,859.6721
74.5339,891.9765
74.5999,869.4735
74.6659,861.2302
74.7319,884.5381
74.7979,839.5161
74.8639,861.7124
74.9299,853.4722
74.9959,849.2891
75.0619,815.646
75.1279,843.2802
75.1939,855.419
75.2599,824.2564
75.3259,821.4451
75.3919,880.69
75.4579,825.0271
75.5239,893.9206
75.5899,932.646
75.6559,927.5794
75.7219,1004.25
75.7879,992
75.8539,1041.77
75.9199,1212.47
75.9859,1953.09
76.0519,2249.17
76.1179,1335.87
76.1839,1495.264
76.2499,1433.565
76.3159,963.4721
76.3819,845.339
76.4479,826.894
76.5139,816.0235
76.5799,790.4451
76.6459,849.1594
76.7119,771.6417
76.7779,816.2892
76.8439,756.8891
76.9099,793.2538
76.9759,759.0456
77.0419,777.4337
77.1079,770.3906
77.1739,839.9202
77.2399,811.4552
77.3059,815.9233
77.3719,777.2937
77.4379,840.2919
77.5039,871.8846
77.5699,825.9112
77.6359,790.4427
77.7019,821.5244
77.7679,817.317
77.8339,835.5662
77.8999,794.323
77.9659,781.5635
78.0319,733.4469
78.0979,809.959
78.1639,1060.18
78.2299,1258.78
78.2959,906.808
78.3619,934.0003
78.4279,1009.16
78.4939,864.0593
78.5599,806.7773
78.6259,819.2125
78.6919,812
78.7579,772.2506
78.8239,809.8804
78.8899,804.342
78.9559,776.0602
79.0219,824.7522
79.0879,850.0723
79.1539,814.5248
79.2199,826.5398
79.2859,762.6105
79.3519,808.6929
79.4179,786.7168
79.4839,745.3584
79.5499,760.9912
79.6159,770.4828
79.6819,757.9793
79.7479,766.2417
79.8139,752.4605
79.8799,819.8524
79.9459,792.0055
79.9899,818.8141