File: RP-XRD-S2-2022/S22.csv
Angle,Counts
6.8399,5386.997
6.9059,5248.84
6.9719,5256.37
7.0379,5168.42
7.1039,5264.42
7.1699,5149.03
7.2359,5115.914
7.3019,5099.24
7.3679,4993.26
7.4339,4939.74
7.4999,4886.22
7.5659,4764.68
7.6319,4788.9
7.6979,4709.64
7.7639,4800.71
7.8299,4671.68
7.8959,4690.66
7.9619,4680.77
8.0279,4597.97
8.0939,4695.09
8.1599,4456.68
8.2259,4465.76
8.2919,4464.75
8.3579,4416.39
8.4239,4333.03
8.4899,4298.25
8.5559,4203.98
8.6219,4322.06
8.6879,4228.34
8.7539,4202.67
8.8199,4138.05
8.8859,4133.02
8.9519,4186.47
9.0179,4016.85
9.0839,3991.16
9.1499,3829.25
9.2159,3989.92
9.2819,3869.57
9.3479,4013.35
9.4139,3812.6
9.4799,3755.857
9.5459,3803.82
9.6119,3860.63
9.6779,3773.74
9.7439,3758.49
9.8099,3781.471
9.8759,3751.04
9.9419,3771.11
10.0079,3775.152
10.0739,3815.03
10.1399,3857.62
10.2059,3972.56
10.2719,4310.25
10.3379,3881.79
10.4039,3537.75
10.4699,3473.78
10.5359,3345.84
10.6019,3473.35
10.6679,3312.04
10.7339,3257.91
10.7999,3368.9
10.8659,3134.55
10.9319,3268.88
10.9979,3270.35
11.0639,3285.89
11.1299,3207.32
11.1959,3107.69
11.2619,3110.89
11.3279,3114.73
11.3939,3135.23
11.4599,3114.24
11.5259,3055.01
11.5919,2970.2
11.6579,2993.82
11.7239,3011.07
11.7899,3029.04
11.8559,2965.73
11.9219,3093.73
11.9879,3087.54
12.0539,3061.04
12.1199,3303.83
12.1859,3194.86
12.2519,3038.34
12.3179,2950.14
12.3839,3006.116
12.4499,2938.63
12.5159,2973.16
12.5819,2888.69
12.6479,2880.66
12.7139,2903.1
12.7799,2813.87
12.8459,2812.66
12.9119,2896
12.9779,2895.51
13.0439,2914.27
13.1099,2866.34
13.1759,2886.793
13.2419,2943.84
13.3079,2933
13.3739,2973.113
13.4399,3007.18
13.5059,3059.17
13.5719,3033.43
13.6379,2931.77
13.7039,3002.91
13.7699,3199.08
13.8359,3220.02
13.9019,3293.15
13.9679,3333.31
14.0339,3488.84
14.0999,3756.44
14.1659,4194.69
14.2319,4416.21
14.2979,4829.02
14.3639,4656.14
14.4299,4199.25
14.4959,3671.73
14.5619,3137.55
14.6279,3051.83
14.6939,2856.86
14.7599,2795.87
14.8259,2704.79
14.8919,2639.69
14.9579,2631.32
15.0239,2569.93
15.0899,2548.24
15.1559,2541.556
15.2219,2577.05
15.2879,2603.16
15.3539,2427.88
15.4199,2453.68
15.4859,2479.56
15.5519,2426.34
15.6179,2396.67
15.6839,2465.12
15.7499,2410.9
15.8159,2541.027
15.8819,2381.98
15.9479,2503.8
16.0139,2590.07
16.0799,2667.879
16.1459,2680.03
16.2119,2367.89
16.2779,2377.15
16.3439,2320.11
16.4099,2325.293
16.4759,2251.471
16.5419,2350.07
16.6079,2278.02
16.6739,2218.28
16.7399,2256.82
16.8059,2305.66
16.8719,2255.065
16.9379,2316.3
17.0039,2295.29
17.0699,2349.56
17.1359,2260.6
17.2019,2241.44
17.2679,2220.69
17.3339,2226.15
17.3999,2239.43
17.4659,2283.44
17.5319,2238.85
17.5979,2252.59
17.6639,2221.61
17.7299,2071.988
17.7959,2120.89
17.8619,2121.92
17.9279,2145.06
17.9939,2149.22
18.0599,2135.3
18.1259,2128.61
18.1919,2100.23
18.2579,2036.29
18.3239,2057.81
18.3899,2119.1
18.4559,2038.38
18.5219,2141.93
18.5879,2075.637
18.6539,2049.11
18.7199,2052.67
18.7859,2020.2
18.8519,2058.29
18.9179,2143.644
18.9839,2081.99
19.0499,2088.82
19.1159,2081.31
19.1819,2064.942
19.2479,2002.81
19.3139,2037.48
19.3799,1993.996
19.4459,2105.41
19.5119,1995.3
19.5779,2016.07
19.6439,1934.76
19.7099,1989.5
19.7759,2017.41
19.8419,1976.46
19.9079,1954.392
19.9739,2037.72
20.0399,2084.27
20.1059,2029
20.1719,1985.68
20.2379,2032.9
20.3039,2034.92
20.3699,2110.174
20.4359,2044.96
20.5019,2142.8
20.5679,2260.36
20.6339,2326.64
20.6999,2174.67
20.7659,2132.66
20.8319,2056.43
20.8979,2132.5
20.9639,1994.05
21.0299,1950.002
21.0959,2055.58
21.1619,1995.53
21.2279,2010.62
21.2939,2009.85
21.3599,2103.72
21.4259,2022.88
21.4919,1945.67
21.5579,1988.86
21.6239,1981.12
21.6899,2013.92
21.7559,1962.36
21.8219,1998.81
21.8879,2010.35
21.9539,2101.79
22.0199,2073.48
22.0859,2022.74
22.1519,1988.63
22.2179,2046.31
22.2839,2036.81
22.3499,2108.86
22.4159,2149.063
22.4819,2179.42
22.5479,2190.08
22.6139,2265.296
22.6799,2382.19
22.7459,2445.18
22.8119,2647.98
22.8779,2824.47
22.9439,3062.68
23.0099,3401.95
23.0759,3666.56
23.1419,3725.08
23.2079,3622.412
23.2739,3518.24
23.3399,3320.87
23.4059,3347
23.4719,3225.97
23.5379,3108.66
23.6039,3124.17
23.6699,3165.778
23.7359,3259.838
23.8019,3127.63
23.8679,3171.01
23.9339,3219.86
23.9999,3391.91
24.0659,4022.26
24.1319,5742.026
24.1979,9877.86
24.2639,18059.4
24.3299,10036.7
24.3959,4415.12
24.4619,4034.68
24.5279,3735.49
24.5939,3483.58
24.6599,3369.3
24.7259,3276.83
24.7919,3199.52
24.8579,3088.01
24.9239,2923.2
24.9899,2906.91
25.0559,2760.46
25.1219,2733.61
25.1879,2751.88
25.2539,2667
25.3199,2571.38
25.3859,2599
25.4519,2677.85
25.5179,2918.36
25.5839,3097.92
25.6499,3196.01
25.7159,2760.65
25.7819,2563.25
25.8479,2543.964
25.9139,2530.75
25.9799,2473.11
26.0459,2392.99
26.1119,2351.28
26.1779,2403.45
26.2439,2349.02
26.3099,2404.06
26.3759,2446.21
26.4419,2376.4
26.5079,2319.71
26.5739,2417.27
26.6399,2490.1
26.7059,2513.51
26.7719,2554.86
26.8379,2704.14
26.9039,2632.79
26.9699,2600.99
27.0359,2567.83
27.1019,2374.078
27.1679,2392.61
27.2339,2348.82
27.2999,2388.92
27.3659,2593.85
27.4319,2788.34
27.4979,2578.51
27.5639,2319.92
27.6299,2320.32
27.6959,2271.69
27.7619,2360.99
27.8279,2543.37
27.8939,2760.92
27.9599,2607.96
28.0259,2653.25
28.0919,2705.81
28.1579,2761.75
28.2239,2906.1
28.2899,2828.56
28.3559,2689.44
28.4219,2509
28.4879,2456.3
28.5539,2367.79
28.6199,2555.49
28.6859,2841.32
28.7519,2934.64
28.8179,3073.7
28.8839,3285.25
28.9499,3693.72
29.0159,3478.19
29.0819,3129.223
29.1479,2861.954
29.2139,2769.46
29.2799,2638.17
29.3459,2612.24
29.4119,2693.26
29.4779,2642
29.5439,2577.36
29.6099,2660.53
29.6759,2841.59
29.7419,2960.83
29.8079,2897.36
29.8739,2689.33
29.9399,2566.33
30.0059,2296.19
30.0719,2235.6
30.1379,2195.519
30.2039,2243.94
30.2699,2313.12
30.3359,2820.51
30.4019,4398.13
30.4679,3428.57
30.5339,2823.24
30.5999,2874.35
30.6659,3100.37
30.7319,3759.49
30.7979,4901.08
30.8639,7620.98
30.9299,18528.1
30.9959,47970.6
31.0619,41016.8
31.1279,14777.9
31.1939,5462.76
31.2599,5409.28
31.3259,4726.69
31.3919,3921.19
31.4579,3237.86
31.5239,2797.47
31.5899,2586.48
31.6559,2452.17
31.7219,2447.79
31.7879,2557.68
31.8539,3064.27
31.9199,3450.9
31.9859,3493.89
32.0519,3103.81
32.1179,2533.82
32.1839,2262.123
32.2499,2555.26
32.3159,3121.049
32.3819,3129.72
32.4479,3870.87
32.5139,4851.98
32.5799,4744.38
32.6459,3428.28
32.7119,2515.467
32.7779,2702.38
32.8439,2711.97
32.9099,2400.16
32.9759,2258.56
33.0419,2031.74
33.1079,1972.84
33.1739,2160.05
33.2399,2099.81
33.3059,2021.96
33.3719,1936.65
33.4379,1861.89
33.5039,1845.27
33.5699,1782.66
33.6359,1839.31
33.7019,1841.32
33.7679,1763.19
33.8339,1868.95
33.8999,1848.28
33.9659,1839.09
34.0319,1835.1
34.0979,1768.32
34.1639,1883.84
34.2299,1790.19
34.2959,1959.48
34.3619,1919.07
34.4279,1846.46
34.4939,1842.124
34.5599,1894.834
34.6259,1913.84
34.6919,1940.42
34.7579,1973.59
34.8239,1923.68
34.8899,1820.28
34.9559,1827.71
35.0219,1784.1
35.0879,1860.69
35.1539,1930.32
35.2199,1928.8
35.2859,1857.02
35.3519,1878.48
35.4179,2037.53
35.4839,2094.77
35.5499,2128.34
35.6159,2115.99
35.6819,1904.04
35.7479,1828.11
35.8139,1846.56
35.8799,1958.01
35.9459,1844.43
36.0119,1752.08
36.0779,1662.74
36.1439,1623.86
36.2099,1622.7
36.2759,1615.31
36.3419,1642.16
36.4079,1705.7
36.4739,1747.85
36.5399,1704.47
36.6059,1803.02
36.6719,1730.49
36.7379,1798.9
36.8039,1877.78
36.8699,2557.55
36.9359,4320.19
37.0019,5185.2
37.0679,3674.07
37.1339,2035.72
37.1999,1717.51
37.2659,1730.126
37.3319,1643.89
37.3979,1540.515
37.4639,1658.15
37.5299,1597.03
37.5959,1526.48
37.6619,1592.77
37.7279,1609.01
37.7939,1474.19
37.8599,1568.32
37.9259,1581.76
37.9919,1509.07
38.0579,1555.214
38.1239,1551.29
38.1899,1571.35
38.2559,1571.6
38.3219,1602.48
38.3879,1685.34
38.4539,2032.65
38.5199,2680.871
38.5859,2427.22
38.6519,2000.73
38.7179,1635.05
38.7839,1665.379
38.8499,1657.38
38.9159,1613.25
38.9819,1661.32
39.0479,1570.87
39.1139,1509.75
39.1799,1486.07
39.2459,1398.04
39.3119,1469.6
39.3779,1507.69
39.4439,1645.85
39.5099,1645.52
39.5759,1625.973
39.6419,1552.45
39.7079,1529.51
39.7739,1553.13
39.8399,1621.771
39.9059,1671.82
39.9719,1660.13
40.0379,1691.8
40.1039,1606.59
40.1699,1681.706
40.2359,1736.92
40.3019,1732.27
40.3679,1853.16
40.4339,2046.91
40.4999,2081.25
40.5659,1990.29
40.6319,2073.95
40.6979,2177.37
40.7639,2266.14
40.8299,2424.32
40.8959,2338
40.9619,2213.459
41.0279,2146.963
41.0939,2103.28
41.1599,2129.97
41.2259,1981.84
41.2919,2155.93
41.3579,2106.656
41.4239,2022.39
41.4899,1985.74
41.5559,1991.22
41.6219,1973.48
41.6879,1942.73
41.7539,1917.15
41.8199,1970.97
41.8859,2059.578
41.9519,2113.65
42.0179,2090.28
42.0839,2023.07
42.1499,1950.56
42.2159,1965.977
42.2819,1852.38
42.3479,1854.6
42.4139,1929.88
42.4799,1990.5
42.5459,2331.04
42.6119,3808.23
42.6779,8410.51
42.7439,5407.32
42.8099,4125.61
42.8759,2355.326
42.9419,2216.22
43.0079,2132.49
43.0739,2063.48
43.1399,2025.57
43.2059,2210.05
43.2719,2586.92
43.3379,2471.29
43.4039,2182.44
43.4699,1822.1
43.5359,1730.07
43.6019,1760.99
43.6679,1807.518
43.7339,1782.28
43.7999,1782.73
43.8659,1695.45
43.9319,1746.38
43.9979,1808.29
44.0639,1867.99
44.1299,1792.46
44.1959,1785.31
44.2619,1692.84
44.3279,1680.99
44.3939,1646.62
44.4599,1656.82
44.5259,1638.55
44.5919,1674.8
44.6579,1663.98
44.7239,1765.52
44.7899,1910.93
44.8559,1850.42
44.9219,1953.899
44.9879,1899.61
45.0539,1931.75
45.1199,1817.05
45.1859,1726.5
45.2519,1742.45
45.3179,1658.38
45.3839,1682.75
45.4499,1723.8
45.5159,1633.83
45.5819,1593.12
45.6479,1581.12
45.7139,1710.242
45.7799,1654.84
45.8459,1722.89
45.9119,1677.3
45.9779,1699.81
46.0439,2010.834
46.1099,3682.9
46.1759,4375.15
46.2419,3289.99
46.3079,2080.18
46.3739,1523.5
46.4399,1483.34
46.5059,1512.01
46.5719,1435.79
46.6379,1469.69
46.7039,1473.04
46.7699,1501.57
46.8359,1459.91
46.9019,1559.071
46.9679,1622.64
47.0339,2030.86
47.0999,3405.23
47.1659,3030.41
47.2319,2573.62
47.2979,1744.02
47.3639,1504.88
47.4299,1453.2
47.4959,1572.84
47.5619,1593.98
47.6279,1850.68
47.6939,2055.69
47.7599,1819.55
47.8259,1689.38
47.8919,1453.75
47.9579,1404.51
48.0239,1441.94
48.0899,1423.66
48.1559,1477.49
48.2219,1453.87
48.2879,1529.68
48.3539,1453.81
48.4199,1415.42
48.4859,1367.54
48.5519,1410.791
48.6179,1373.39
48.6839,1385.1
48.7499,1411.45
48.8159,1415.83
48.8819,1452.97
48.9479,1446.2
49.0139,1375.83
49.0799,1360.02
49.1459,1326.05
49.2119,1304.52
49.2779,1274.07
49.3439,1357.54
49.4099,1339.07
49.4759,1470.52
49.5419,1490.94
49.6079,2115.623
49.6739,3923.52
49.7399,4183.42
49.8059,3084.03
49.8719,2062.65
49.9379,1467.87
50.0039,1373.77
50.0699,1311.58
50.1359,1287.56
50.2019,1335.22
50.2679,1279.52
50.3339,1266.58
50.3999,1244.48
50.4659,1274.31
50.5319,1210.27
50.5979,1209.455
50.6639,1210.89
50.7299,1208.29
50.7959,1280.23
50.8619,1236.12
50.9279,1257.93
50.9939,1291.62
51.0599,1299.45
51.1259,1241.54
51.1919,1243.54
51.2579,1193.7
51.3239,1182.41
51.3899,1167.78
51.4559,1198.37
51.5219,1253.059
51.5879,1156.58
51.6539,1249.26
51.7199,1225
51.7859,1201.44
51.8519,1245.71
51.9179,1218.68
51.9839,1199.79
52.0499,1126.872
52.1159,1184.05
52.1819,1201
52.2479,1265.9
52.3139,1281.392
52.3799,1218.3
52.4459,1172.1
52.5119,1226.74
52.5779,1202.22
52.6439,1168.03
52.7099,1238.12
52.7759,1262.09
52.8419,1255.866
52.9079,1347.08
52.9739,1385.93
53.0399,1395.76
53.1059,1408.07
53.1719,1829.21
53.2379,3038.6
53.3039,3352.5
53.3699,2756.85
53.4359,2164.57
53.5019,1609.44
53.5679,1580.47
53.6339,2110.92
53.6999,3188.29
53.7659,2160.95
53.8319,2185.9
53.8979,1485.19
53.9639,1286.85
54.0299,1260.54
54.0959,1217.41
54.1619,1124.85
54.2279,1225
54.2939,1137.22
54.3599,1173.4
54.4259,1163.05
54.4919,1161.69
54.5579,1145.75
54.6239,1206.87
54.6899,1175.37
54.7559,1199.56
54.8219,1170.84
54.8879,1136.75
54.9539,1191.78
55.0199,1197.09
55.0859,1157.22
55.1519,1159.6
55.2179,1212.43
55.2839,1241.75
55.3499,1247.85
55.4159,1202.83
55.4819,1248.43
55.5479,1323.085
55.6139,1607.24
55.6799,1524.72
55.7459,1388.09
55.8119,1311.49
55.8779,1207.054
55.9439,1185.42
56.0099,1195.37
56.0759,1181.68
56.1419,1179.18
56.2079,1180.27
56.2739,1200.14
56.3399,1233.29
56.4059,1193.39
56.4719,1133.682
56.5379,1165.41
56.6039,1181.381
56.6699,1187.58
56.7359,1115.05
56.8019,1195.53
56.8679,1141.61
56.9339,1140.52
56.9999,1043.62
57.0659,1100.99
57.1319,1140.35
57.1979,1103.877
57.2639,1147.18
57.3299,1115.41
57.3959,1130.533
57.4619,1233.89
57.5279,1141.32
57.5939,1154.12
57.6599,1203.64
57.7259,1170.31
57.7919,1120.96
57.8579,1126.57
57.9239,1112.57
57.9899,1093.42
58.0559,1146.76
58.1219,1088.46
58.1879,1124.21
58.2539,1123.27
58.3199,1094.24
58.3859,1146.25
58.4519,1168.71
58.5179,1227.48
58.5839,1323.68
58.6499,1345.16
58.7159,1421.012
58.7819,1761.78
58.8479,3395.82
58.9139,7822.56
58.9799,4799.26
59.0459,4475.7
59.1119,2978.18
59.1779,1425.7
59.2439,1333.02
59.3099,1305.43
59.3759,1641.343
59.4419,1703.15
59.5079,1623.54
59.5739,1528.31
59.6399,1380.03
59.7059,1340.05
59.7719,1268.72
59.8379,1201.2
59.9039,1147.291
59.9699,1134.61
60.0359,1099.56
60.1019,1219.67
60.1679,1209.98
60.2339,1184.38
60.2999,1112.13
60.3659,1158.59
60.4319,1110.22
60.4979,1118.28
60.5639,1019.12
60.6299,996.2378
60.6959,1040.36
60.7619,982.3115
60.8279,1042.1
60.8939,998.7727
60.9599,977.5555
61.0259,1000.73
61.0919,1014.71
61.1579,1026.57
61.2239,951.5857
61.2899,1031.39
61.3559,1068.31
61.4219,1029.73
61.4879,1021.55
61.5539,1004.29
61.6199,1021.36
61.6859,1030.95
61.7519,1078.447
61.8179,1026.44
61.8839,1140.89
61.9499,1087.08
62.0159,1075.79
62.0819,1057.28
62.1479,1064.62
62.2139,1125.65
62.2799,1206.8
62.3459,1168.88
62.4119,1247.47
62.4779,1173.32
62.5439,1166.59
62.6099,1220.13
62.6759,1137.62
62.7419,1194.5
62.8079,1165.66
62.8739,1286.44
62.9399,1168.16
63.0059,1147.8
63.0719,1152.99
63.1379,1185.9
63.2039,1351.746
63.2699,1233.01
63.3359,1219.72
63.4019,1276.85
63.4679,1210.4
63.5339,1219.47
63.5999,1242.13
63.6659,1240.04
63.7319,1210.88
63.7979,1256
63.8639,1204.15
63.9299,1292.9
63.9959,1243.91
64.0619,1256.59
64.1279,1211.85
64.1939,1240.3
64.2599,1217.65
64.3259,1236.35
64.3919,1264.24
64.4579,1245.05
64.5239,1295.28
64.5899,1687.15
64.6559,2494.72
64.7219,2082.8
64.7879,1868.17
64.8539,1827.29
64.9199,1407.53
64.9859,1338.54
65.0519,1323.29
65.1179,1413.83
65.1839,1786.52
65.2499,2046.25
65.3159,1492.12
65.3819,1658.22
65.4479,1418.43
65.5139,1269.58
65.5799,1241.55
65.6459,1218.75
65.7119,1195.43
65.7779,1186.55
65.8439,1199.44
65.9099,1213.86
65.9759,1157.44
66.0419,1180.75
66.1079,1166.46
66.1739,1294.42
66.2399,1323.6
66.3059,1688.39
66.3719,1911.75
66.4379,1583.872
66.5039,1649.17
66.5699,1518.21
66.6359,1398.2
66.7019,1402.49
66.7679,1312.11
66.8339,1223.05
66.8999,1113
66.9659,1156.6
67.0319,1132.2
67.0979,1144.8
67.1639,1080.77
67.2299,1095.13
67.2959,1039.84
67.3619,1042.84
67.4279,1069.39
67.4939,1067.74
67.5599,1173.63
67.6259,1094.32
67.6919,1078.42
67.7579,1097.53
67.8239,1086.86
67.8899,1030.1
67.9559,1069.56
68.0219,1018.32
68.0879,1103.77
68.1539,1013.73
68.2199,1049
68.2859,1020.81
68.3519,994.8212
68.4179,1038.44
68.4839,994.6193
68.5499,1002.706
68.6159,1010.66
68.6819,1033.5
68.7479,1016.75
68.8139,965.9267
68.8799,1002.05
68.9459,985.2793
69.0119,1021.9
69.0779,1013.03
69.1439,986.0971
69.2099,1079.7
69.2759,1105
69.3419,1177.83
69.4079,1135.39
69.4739,1138.43
69.5399,1080.96
69.6059,1063.2
69.6719,1106.82
69.7379,1136.88
69.8039,1094.83
69.8699,1114.49
69.9359,1102.94
70.0019,1072.07
70.0679,1044.76
70.1339,1035.14
70.1999,1026.07
70.2659,1018.77
70.3319,969.4114
70.3979,1075.35
70.4639,1130.41
70.5299,1155.09
70.5959,1147.13
70.6619,1167.5
70.7279,1289.94
70.7939,1789.375
70.8599,3376.21
70.9259,5533.91
70.9919,2989.6
71.0579,2930.636
71.1239,2907.52
71.1899,1460.65
71.2559,1275.19
71.3219,1172.05
71.3879,1088.49
71.4539,1085.317
71.5199,1082.83
71.5859,1004.8
71.6519,1013.49
71.7179,1097.82
71.7839,1039.41
71.8499,1058.057
71.9159,1028.22
71.9819,1023.81
72.0479,973.9661
72.1139,1045.42
72.1799,1040.96
72.2459,1119.76
72.3119,1119.04
72.3779,1108.647
72.4439,1062.32
72.5099,1132.14
72.5759,1129.65
72.6419,1048.29
72.7079,1122.38
72.7739,1121.06
72.8399,1175.642
72.9059,1200.8
72.9719,1283.8
73.0379,1342.69
73.1039,1287
73.1699,1259.17
73.2359,1265.66
73.3019,1216.57
73.3679,1206.58
73.4339,1249.69
73.4999,1267.74
73.5659,1256.74
73.6319,1311.72
73.6979,1296.56
73.7639,1369.09
73.8299,1401.031
73.8959,1301.29
73.9619,1356.24
74.0279,1249.12
74.0939,1252.3
74.1599,1203.51
74.2259,1175.26
74.2919,1164.18
74.3579,1157.66
74.4239,1062.195
74.4899,1102.11
74.5559,1091.58
74.6219,1054.24
74.6879,1026.97
74.7539,1066.28
74.8199,1112.97
74.8859,1068.769
74.9519,1106.91
75.0179,1061.21
75.0839,1075.142
75.1499,1048.015
75.2159,1101.82
75.2819,1049.05
75.3479,1125.05
75.4139,1111.45
75.4799,1143.88
75.5459,1198.89
75.6119,1193.47
75.6779,1625.66
75.7439,1425.08
75.8099,1337.65
75.8759,1628.33
75.9419,1889.72
76.0079,1845.71
76.0739,1369.37
76.1399,1526.9
76.2059,1493.73
76.2719,1287.07
76.3379,1174.277
76.4039,1082.05
76.4699,1070.549
76.5359,997.293
76.6019,993.4515
76.6679,929.0287
76.7339,945
76.7999,1011.11
76.8659,1007.669
76.9319,987.2808
76.9979,962.5751
77.0639,999.6965
77.1299,946.6756
77.1959,957.2744
77.2619,970.303
77.3279,992.1991
77.3939,1056.71
77.4599,1176.93
77.5259,1107.8
77.5919,994.6149
77.6579,1083.89
77.7239,1072.77
77.7899,976.2397
77.8559,927.5525
77.9219,912
77.9879,946.3382
78.0539,982.5162
78.1199,1074.08
78.1859,1218.88
78.2519,1006.48
78.3179,1041.567
78.3839,1107.83
78.4499,989.2905
78.5159,944.2473
78.5819,998.9521
78.6479,1045.67
78.7139,1069.34
78.7799,1096.79
78.8459,1047.01
78.9119,1040.9
78.9779,1045.85
79.0439,983.6168
79.1099,967.6722
79.1759,902.4933
79.2419,947.6253
79.3079,907.1257
79.3739,905.0504
79.4399,918.81
79.5059,921.1897
76.5139,816.0235
76.5799,790.4451
76.6459,849.1594
76.7119,771.6417
76.7779,816.2892
76.7999,754.8913