File: RP-XRD-S2-2022/S24.csv
Angle,Counts
3.7819,17174
3.8479,16627.2
3.9139,15709.7
3.9799,14906.4
4.0459,14090.2
4.1119,13630.233
4.1779,12995.6
4.2439,12137.2
4.3099,11618.1
4.3759,11145.9
4.4419,10701.472
4.5079,10325.1
4.5739,9798.07
4.6399,9267.4
4.7059,8810.21
4.7719,8484.16
4.8379,8099.62
4.9039,7892.3
4.9699,7654.75
5.0359,7243.94
5.1019,7081.32
5.1679,6839.92
5.2339,6633.39
5.2999,6341.54
5.3659,6128.13
5.4319,5983.89
5.4979,5921.25
5.5639,5754.46
5.6299,5491
5.6959,5511.06
5.7619,5418.89
5.8279,5215.01
5.8939,5147.08
5.9599,5125.54
6.0259,5045.12
6.0919,5014.78
6.1579,4952.61
6.2239,4977.96
6.2899,4936.767
6.3559,4754.81
6.4219,4805.91
6.4879,4794.3
6.5539,4746.14
6.6199,4634.7
6.6859,4627.09
6.7519,4640.54
6.8179,4582.99
6.8839,4555.51
6.9499,4536.18
7.0159,4429.33
7.0819,4424.86
7.1479,4458.46
7.2139,4406.7
7.2799,4324.68
7.3459,4370.22
7.4119,4131.62
7.4779,4110.16
7.5439,4086.92
7.6099,4173.06
7.6759,4072.441
7.7419,4187.22
7.8079,4043.17
7.8739,4123.27
7.9399,4097.146
8.0059,3935.98
8.0719,3917.94
8.1379,4054.21
8.2039,3969.764
8.2699,3947.5
8.3359,4022.08
8.4019,3899.24
8.4679,3872.36
8.5339,3918.16
8.5999,3829.31
8.6659,3859.67
8.7319,3873.64
8.7979,3773.056
8.8639,3866.556
8.9299,3866.57
8.9959,3798.528
9.0619,3768.91
9.1279,3712.49
9.1939,3805.46
9.2599,3780.73
9.3259,3773.7
9.3919,3697.82
9.4579,3717.62
9.5239,3668
9.5899,3640.1
9.6559,3607.79
9.7219,3678.59
9.7879,3556.14
9.8539,3581.55
9.9199,3599.37
9.9859,3623.42
10.0519,3569.91
10.1179,3630.62
10.1839,3643.99
10.2499,3651.68
10.3159,3649.2
10.3819,3572.764
10.4479,3581.17
10.5139,3432.51
10.5799,3384.71
10.6459,3350.04
10.7119,3385.9
10.7779,3391.177
10.8439,3445.87
10.9099,3506.82
10.9759,3429.53
11.0419,3360.79
11.1079,3299.65
11.1739,3394.823
11.2399,3331.67
11.3059,3288.29
11.3719,3312.24
11.4379,3280.99
11.5039,3213.63
11.5699,3216.16
11.6359,3283.37
11.7019,3165.23
11.7679,3181.85
11.8339,3165.11
11.8999,3190.96
11.9659,3160.354
12.0319,3170.45
12.0979,3088.96
12.1639,3182.95
12.2299,3210.55
12.2959,3081.83
12.3619,3155.57
12.4279,3150.01
12.4939,3103.79
12.5599,3080.41
12.6259,3055.177
12.6919,3131.5
12.7579,3086.351
12.8239,2987.34
12.8899,3005.47
12.9559,3015.95
13.0219,3042.45
13.0879,2918.41
13.1539,3040.86
13.2199,2851.19
13.2859,2885.98
13.3519,2994.17
13.4179,2970.42
13.4839,2891.59
13.5499,2915.31
13.6159,2921.059
13.6819,2830.42
13.7479,2823.55
13.8139,2800.9
13.8799,2876.79
13.9459,2822.96
14.0119,2887.64
14.0779,2891.407
14.1439,2961.44
14.2099,2941.472
14.2759,2887.38
14.3419,2962.45
14.4079,3018.02
14.4739,2924.08
14.5399,2883.2
14.6059,2814.04
14.6719,2722.48
14.7379,2669.39
14.8039,2635.31
14.8699,2606.81
14.9359,2649.2
15.0019,2616.01
15.0679,2621.67
15.1339,2611.73
15.1999,2574.09
15.2659,2624.67
15.3319,2542
15.3979,2592.17
15.4639,2516.27
15.5299,2500.62
15.5959,2544.02
15.6619,2507.23
15.7279,2511.86
15.7939,2600.48
15.8599,2597.04
15.9259,2542.54
15.9919,2390.39
16.0579,2526.56
16.1239,2652.78
16.1899,2580.92
16.2559,2388.41
16.3219,2240.38
16.3879,2338.06
16.4539,2396.49
16.5199,2384.27
16.5859,2390.93
16.6519,2360.26
16.7179,2283.46
16.7839,2279.45
16.8499,2320.83
16.9159,2259.35
16.9819,2187.84
17.0479,2236.32
17.1139,2254.73
17.1799,2239.44
17.2459,2217.32
17.3119,2300.98
17.3779,2227.88
17.4439,2136.05
17.5099,2250.55
17.5759,2163.04
17.6419,2148.25
17.7079,2218.64
17.7739,2175.5
17.8399,2155.27
17.9059,2129.43
17.9719,2220.99
18.0379,2097.63
18.1039,2121.95
18.1699,2186.02
18.2359,2074.87
18.3019,2035.99
18.3679,2109.68
18.4339,2129.7
18.4999,2114.04
18.5659,2059.87
18.6319,2052.19
18.6979,2029
18.7639,2093.45
18.8299,2105.761
18.8959,2044.59
18.9619,2039.97
19.0279,2019.45
19.0939,1996.04
19.1599,2047.677
19.2259,1971.5
19.2919,2023.2
19.3579,1922.14
19.4239,2017
19.4899,2052.53
19.5559,1962.41
19.6219,1926.35
19.6879,1957.37
19.7539,1937.69
19.8199,1859.23
19.8859,1988.99
19.9519,1957.44
20.0179,1934.56
20.0839,1900.031
20.1499,1913.12
20.2159,1980.02
20.2819,1946.88
20.3479,1918.73
20.4139,1902.19
20.4799,1890.655
20.5459,1932.07
20.6119,1946.77
20.6779,1953.79
20.7439,1911.72
20.8099,1947.41
20.8759,1924.5
20.9419,1938.58
21.0079,1894.58
21.0739,1882.95
21.1399,1893.93
21.2059,1925.575
21.2719,1904.69
21.3379,1839.98
21.4039,1917.72
21.4699,1861.48
21.5359,1820.435
21.6019,1844.33
21.6679,1851.683
21.7339,1854.758
21.7999,1814.46
21.8659,1873.87
21.9319,1974.67
21.9979,2058.56
22.0639,1801.14
22.1299,1829.23
22.1959,1774.19
22.2619,1822.34
22.3279,1774.8
22.3939,1821.63
22.4599,1738.14
22.5259,1792.42
22.5919,1821.29
22.6579,1728.53
22.7239,1814.4
22.7899,1752.63
22.8559,1838.82
22.9219,1812.39
22.9879,1789.81
23.0539,1821.58
23.1199,1857.49
23.1859,1861.87
23.2519,1862.82
23.3179,1887.17
23.3839,1893.54
23.4499,1834.83
23.5159,1920.09
23.5819,1852
23.6479,1956.71
23.7139,2068.61
23.7799,2078.208
23.8459,2103.87
23.9119,2213.07
23.9779,2339.54
24.0439,2996.34
24.1099,4584.69
24.1759,9425.06
24.2419,25856.8
24.3079,35669.9
24.3739,10653.2
24.4399,2904.32
24.5059,2516.69
24.5719,2356.81
24.6379,2148.63
24.7039,2004.531
24.7699,1817.95
24.8359,1890.35
24.9019,1776.4
24.9679,1766.61
25.0339,1802.98
25.0999,1827.39
25.1659,1786.04
25.2319,1755.72
25.2979,1704.73
25.3639,1707.45
25.4299,1683.891
25.4959,1735.01
25.5619,1836.69
25.6279,1908.15
25.6939,1794.15
25.7599,1795.86
25.8259,1737.72
25.8919,1753.69
25.9579,1739.41
26.0239,1706.76
26.0899,1664.89
26.1559,1677.5
26.2219,1720.32
26.2879,1717.08
26.3539,1682.81
26.4199,1673.68
26.4859,1607.12
26.5519,1671.9
26.6179,1667.245
26.6839,1614.86
26.7499,1763.08
26.8159,1761.34
26.8819,1777.91
26.9479,1811.04
27.0139,1824.64
27.0799,1749.42
27.1459,1679.89
27.2119,1643.57
27.2779,1611.2
27.3439,1646.854
27.4099,1714.99
27.4759,1670.44
27.5419,1616.46
27.6079,1635.04
27.6739,1664.16
27.7399,1635.3
27.8059,1672.74
27.8719,1715.16
27.9379,1937.43
28.0039,2315.62
28.0699,3033.97
28.1359,1986.128
28.2019,1778.15
28.2679,1815.12
28.3339,1782.66
28.3999,1647.56
28.4659,1652.51
28.5319,1528.159
28.5979,1632.19
28.6639,1687.913
28.7299,1641.24
28.7959,1613.61
28.8619,1744.03
28.9279,1640.01
28.9939,1835.42
29.0599,1776.45
29.1259,1637.15
29.1919,1573.69
29.2579,1611.84
29.3239,1635.56
29.3899,1635.4
29.4559,1608.59
29.5219,1628.89
29.5879,1666.48
29.6539,1670.9
29.7199,1724.89
29.7859,1691.45
29.8519,1929.91
29.9179,1838.62
29.9839,1656.6
30.0499,1628.29
30.1159,1611.54
30.1819,1698.42
30.2479,1875.45
30.3139,2049.01
30.3799,2099.87
30.4459,2308.99
30.5119,2766.93
30.5779,3104.34
30.6439,3704.53
30.7099,4014.44
30.7759,5059.42
30.8419,8184.95
30.9079,19315.1
30.9739,61638.6
31.0399,200047
31.1059,123457.527
31.1719,27284.1
31.2379,6616.43
31.3039,5129.71
31.3699,4372.71
31.4359,3571.26
31.5019,2758.93
31.5679,2379.2
31.6339,2131.98
31.6999,2098.531
31.7659,2092.19
31.8319,2012.15
31.8979,2292.23
31.9639,3132.694
32.0299,3359.846
32.0959,2533.28
32.1619,1958.99
32.2279,1890.155
32.2939,1885.71
32.3599,2000.88
32.4259,2267.96
32.4919,3689.036
32.5579,3841.71
32.6239,3310.72
32.6899,2320.849
32.7559,1871.078
32.8219,1763.47
32.8879,1717.8
32.9539,1803.79
33.0199,1826.48
33.0859,1871.34
33.1519,1775.81
33.2179,1677.16
33.2839,1623.37
33.3499,1586.826
33.4159,1605.11
33.4819,1589.5
33.5479,1548
33.6139,1632.67
33.6799,1665.03
33.7459,1511.86
33.8119,1474.39
33.8779,1481.41
33.9439,1471.94
34.0099,1525.83
34.0759,1481.19
34.1419,1459.39
34.2079,1507.01
34.2739,1591.87
34.3399,1715.58
34.4059,1697.72
34.4719,1518.96
34.5379,1444.94
34.6039,1443.143
34.6699,1444.61
34.7359,1403.61
34.8019,1400.87
34.8679,1463.49
34.9339,1463.15
34.9999,1388.34
35.0659,1446.07
35.1319,1413.29
35.1979,1460.39
35.2639,1490.062
35.3299,1429.2
35.3959,1358.19
35.4619,1412.78
35.5279,1492.55
35.5939,1423.26
35.6599,1383.72
35.7259,1304.29
35.7919,1436.65
35.8579,1408.34
35.9239,1334.81
35.9899,1366.75
36.0559,1404.06
36.1219,1307.17
36.1879,1286.9
36.2539,1279.27
36.3199,1314.11
36.3859,1310.66
36.4519,1349.61
36.5179,1341.18
36.5839,1294.55
36.6499,1333.177
36.7159,1366.6
36.7819,1249.89
36.8479,1253.416
36.9139,1236.48
36.9799,1259.68
37.0459,1188.947
37.1119,1221.12
37.1779,1198.637
37.2439,1179.8
37.3099,1237.76
37.3759,1228.64
37.4419,1239.74
37.5079,1205.79
37.5739,1248.81
37.6399,1200.2
37.7059,1230.91
37.7719,1210.44
37.8379,1178.54
37.9039,1201.73
37.9699,1246.6
38.0359,1200.77
38.1019,1164.22
38.1679,1200.5
38.2339,1179.46
38.2999,1183.88
38.3659,1191.18
38.4319,1205.03
38.4979,1258.19
38.5639,1272.03
38.6299,1170.12
38.6959,1228.17
38.7619,1168
38.8279,1198.82
38.8939,1150.78
38.9599,1154.69
39.0259,1174.03
39.0919,1128.19
39.1579,1127.97
39.2239,1124.23
39.2899,1226.83
39.3559,1117.89
39.4219,1181.81
39.4879,1201.38
39.5539,1154.88
39.6199,1181.92
39.6859,1159.519
39.7519,1080.06
39.8179,1178.79
39.8839,1204.61
39.9499,1180.661
40.0159,1189.77
40.0819,1134.4
40.1479,1112.56
40.2139,1155.61
40.2799,1136.83
40.3459,1111.01
40.4119,1212.86
40.4779,1202.08
40.5439,1133.92
40.6099,1154.177
40.6759,1186.32
40.7419,1150.74
40.8079,1247
40.8739,1198.77
40.9399,1221.14
41.0059,1275.956
41.0719,1280.33
41.1379,1249.16
41.2039,1115.19
41.2699,1187.49
41.3359,1153.04
41.4019,1191.7
41.4679,1159.35
41.5339,1144.22
41.5999,1142.29
41.6659,1197.61
41.7319,1181.891
41.7979,1090.08
41.8639,1199.48
41.9299,1152.06
41.9959,1152.34
42.0619,1169.27
42.1279,1218.2
42.1939,1221.876
42.2599,1217.332
42.3259,1238.47
42.3919,1287.61
42.4579,1403.422
42.5239,1606.29
42.5899,2294.06
42.6559,7049.54
42.7219,15359.3
42.7879,8600.98
42.8539,4185.08
42.9199,1579.04
42.9859,1407.42
43.0519,1309.91
43.1179,1228
43.1839,1135.89
43.2499,1173.5
43.3159,1155.35
43.3819,1118.27
43.4479,1095.23
43.5139,1027.106
43.5799,1060.68
43.6459,1099.53
43.7119,1132.5
43.7779,1086.35
43.8439,1087.57
43.9099,1131.42
43.9759,1043.75
44.0419,1096.37
44.1079,1074.41
44.1739,1057.31
44.2399,1060.11
44.3059,1059.76
44.3719,1039.63
44.4379,1071.72
44.5039,1054.02
44.5699,1037.93
44.6359,1019.42
44.7019,1009.26
44.7679,1090.54
44.8339,1128.64
44.8999,1083.3
44.9659,1091.05
45.0319,1129.9
45.0979,1165.91
45.1639,1110.74
45.2299,1064.65
45.2959,1048.39
45.3619,1025.39
45.4279,1010.6
45.4939,1067.404
45.5599,1094.83
45.6259,1059.32
45.6919,1081.57
45.7579,1055.12
45.8239,1129.95
45.8899,1148.75
45.9559,1248.88
46.0219,1463.23
46.0879,2609.86
46.1539,8218.35
46.2199,7171.37
46.2859,5956.415
46.3519,2004.63
46.4179,1226.73
46.4839,1183.99
46.5499,1159.469
46.6159,1074.25
46.6819,1097.55
46.7479,1070
46.8139,1054.73
46.8799,1152.92
46.9459,1208.82
47.0119,1366.56
47.0779,2378.98
47.1439,6628.89
47.2099,4340.74
47.2759,4205.12
47.3419,1486.85
47.4079,1159.24
47.4739,1069.93
47.5399,1040.903
47.6059,1007.61
47.6719,970.075
47.7379,953.5485
47.8039,1009.13
47.8699,929.0793
47.9359,965.3008
48.0019,935.339
48.0679,942.8703
48.1339,998.8143
48.1999,991.4354
48.2659,1006.49
48.3319,993.8983
48.3979,1008.07
48.4639,966.0369
48.5299,979.9999
48.5959,974.4794
48.6619,952.7137
48.7279,1054.46
48.7939,1078.68
48.8599,1096.74
48.9259,1135.699
48.9919,1045.289
49.0579,1014.59
49.1239,915.9338
49.1899,980.1563
49.2559,1024.42
49.3219,1019.106
49.3879,1060.72
49.4539,1084.67
49.5199,1144.52
49.5859,1427.874
49.6519,3175.59
49.7179,9134.47
49.7839,5401.89
49.8499,5118.49
49.9159,1763.05
49.9819,1114.13
50.0479,1054.305
50.1139,1003.48
50.1799,1048.06
50.2459,928.0647
50.3119,940.9027
50.3779,995.5661
50.4439,944.3761
50.5099,892.6108
50.5759,921.0075
50.6419,960.6044
50.7079,940.0132
50.7739,945.3302
50.8399,889.4603
50.9059,916.9202
50.9719,869.4869
51.0379,910.6047
51.1039,877.8494
51.1699,905.0557
51.2359,864.9056
51.3019,862
51.3679,851.9012
51.4339,921.0619
51.4999,834.6282
51.5659,874.4782
51.6319,894.3392
51.6979,909.4602
51.7639,872.3864
51.8299,876.9056
51.8959,849.4377
51.9619,849.0737
52.0279,918.7024
52.0939,892.9381
52.1599,857.4114
52.2259,818.0119
52.2919,912.5266
52.3579,860.6222
52.4239,904.9307
52.4899,861.6107
52.5559,834.9853
52.6219,865.5693
52.6879,907.4737
52.7539,846.7909
52.8199,860.3037
52.8859,917.0444
52.9519,1042.47
53.0179,940.1975
53.0839,915.5666
53.1499,883.8526
53.2159,938.7521
53.2819,914.1149
53.3479,959.1505
53.4139,1031.45
53.4799,1060
53.5459,1083.71
53.6119,1446.9
53.6779,3917.899
53.7439,6602.51
53.8099,3245.48
53.8759,3445.8
53.9419,1206.62
54.0079,987.0605
54.0739,955.2477
54.1399,989.9333
54.2059,855.2093
54.2719,852.6948
54.3379,870.4484
54.4039,840.8451
54.4699,829.1059
54.5359,793.484
54.6019,861.4362
54.6679,809.1683
54.7339,804.2299
54.7999,821.0886
54.8659,807.5398
54.9319,811.7786
54.9979,807.9557
55.0639,773.7875
55.1299,825.6816
55.1959,871.1371
55.2619,840.6283
55.3279,891.3938
55.3939,862.2362
55.4599,831.5663
55.5259,858.4748
55.5919,864.8351
55.6579,837.8407
55.7239,833.9589
55.7899,897.7669
55.8559,864.8627
55.9219,790.2156
55.9879,820.3332
56.0539,859.558
56.1199,840.6342
56.1859,791.8143
56.2519,821.2258
56.3179,819.2448
56.3839,843.9395
56.4499,845.5309
56.5159,818.2316
56.5819,814.5074
56.6479,825.2919
56.7139,816.6931
56.7799,819.106
56.8459,787.0972
56.9119,818.2921
56.9779,764.286
57.0439,788.3762
57.1099,826.1774
57.1759,783.0353
57.2419,854.9648
57.3079,803.562
57.3739,854.8791
57.4399,872.341
57.5059,883.9852
57.5719,841.4187
57.6379,781.018
57.7039,825.7612
57.7699,786.8143
57.8359,847.2167
57.9019,793.6519
57.9679,853.8155
58.0339,851.1591
58.0999,843.8846
58.1659,829.3394
58.2319,820.4647
58.2979,745.8056
58.3639,868.776
58.4299,883.637
58.4959,966.0751
58.5619,1027.28
58.6279,1204.35
58.6939,1331.96
58.7599,1462.46
58.8259,2403.56
58.8919,7267.28
58.9579,21052.3
59.0239,8929.14
59.0899,10990.64
59.1559,4615.516
59.2219,1666.18
59.2879,1229.71
59.3539,1094.15
59.4199,1080.65
59.4859,1083.99
59.5519,1121.63
59.6179,1026.61
59.6839,1038.71
59.7499,886.4365
59.8159,857.6415
59.8819,852.3422
59.9479,856.953
60.0139,843.9643
60.0799,808.7347
60.1459,808.5459
60.2119,768.4734
60.2779,798.2241
60.3439,803.6018
60.4099,794.3895
60.4759,752.6962
60.5419,738.5075
60.6079,712.3229
60.6739,740.23
60.7399,737.3569
60.8059,719.1327
60.8719,738.8745
60.9379,747.1859
61.0039,748.5225
61.0699,720.8819
61.1359,733.1283
61.2019,752.7081
61.2679,747.68
61.3339,738.466
61.3999,761.1416
61.4659,698.5343
61.5319,720.0163
61.5979,691.7347
61.6639,730.0664
61.7299,748.3892
61.7959,692.5223
61.8619,752.829
61.9279,785.4128
61.9939,736.4426
62.0599,719.7889
62.1259,729.2536
62.1919,696.1018
62.2579,728.0443
62.3239,726.8156
62.3899,735.6995
62.4559,698.9557
62.5219,768.5722
62.5879,735.8319
62.6539,731.3097
62.7199,722.9864
62.7859,765.7169
62.8519,765.8905
62.9179,763.1591
62.9839,777.668
63.0499,754.3684
63.1159,699.8938
63.1819,677.4074
63.2479,704.4454
63.3139,755.578
63.3799,805.9293
63.4459,836.6665
63.5119,769.0043
63.5779,737.9559
63.6439,736.8835
63.7099,716.6693
63.7759,743.7876
63.8419,716.0264
63.9079,749.2376
63.9739,789.1682
64.0399,772.9603
64.1059,741.4096
64.1719,757.5221
64.2379,815.7052
64.3039,843.0634
64.3699,847.6729
64.4359,872.0662
64.5019,938.7053
64.5679,1168.39
64.6339,2824.23
64.6999,7268.14
64.7659,3239.83
64.8319,3612.47
64.8979,2719.09
64.9639,1150.84
65.0299,1002.3
65.0959,976.9173
65.1619,1164.97
65.2279,2207.47
65.2939,1882.13
65.3599,1322.49
65.4259,1633.43
65.4919,926.8358
65.5579,807.3712
65.6239,754.6566
65.6899,745.9763
65.7559,731.9648
65.8219,758.9614
65.8879,690.5601
65.9539,750.6021
66.0199,689.4291
66.0859,715.5223
66.1519,728.0264
66.2179,721.6402
66.2839,711.1356
66.3499,671.6897
66.4159,700.9853
66.4819,729.177
66.5479,638.9739
66.6139,695.6845
66.6799,707.866
66.7459,734.4601
66.8119,692.5029
66.8779,765.2062
66.9439,683.2436
67.0099,708.4572
67.0759,755.091
67.1419,702.5841
67.2079,676.1523
67.2739,680.1768
67.3399,740.4557
67.4059,698.4663
67.4719,736
67.5379,890.5137
67.6039,934.3715
67.6699,822.4542
67.7359,850.7922
67.8019,743.1472
67.8679,720.3731
67.9339,683.4779
67.9999,704.6931
68.0659,690.8554
68.1319,682.3893
68.1979,694.7405
68.2639,692.9498
68.3299,693.8673
68.3959,655.0117
68.4619,732.6013
68.5279,655.9074
68.5939,683.8378
68.6599,703.2864
68.7259,667.5311
68.7919,673.3965
68.8579,640.4306
68.9239,675.8538
68.9899,670.6784
69.0559,689.4408
69.1219,708.1329
69.1879,662.313
69.2539,705.342
69.3199,669.7077
69.3859,685.525
69.4519,691.0913
69.5179,630.646
69.5839,657.0368
69.6499,652.1743
69.7159,703.633
69.7819,660.386
69.8479,689.481
69.9139,647.3629
69.9799,686.1891
70.0459,657.9708
70.1119,649.3807
70.1779,648.3216
70.2439,699.556
70.3099,695.3008
70.3759,719.9958
70.4419,762.9501
70.5079,876.7746
70.5739,940.2711
70.6399,989.1872
70.7059,1035.36
70.7719,1285.83
70.8379,2755.35
70.9039,8989.02
70.9699,11673.868
71.0359,4620.35
71.1019,6825.96
71.1679,4311.59
71.2339,1514.16
71.2999,1095.5
71.3659,875.2353
71.4319,796.4555
71.4979,757.5838
71.5639,730
71.6299,707.1683
71.6959,696.7922
71.7619,723.5252
71.8279,796.8477
71.8939,673.6993
71.9599,672.3702
72.0259,693
72.0919,684.8139
72.1579,699.7875
72.2239,695
72.2899,678.0974
72.3559,727.9084
72.4219,704.0704
72.4879,703.5219
72.5539,704.2183
72.6199,670.027
72.6859,655.5398
72.7519,604.9087
72.8179,647.2269
72.8839,613.7256
72.9499,663.4186
73.0159,657.0013
73.0819,687.7168
73.1479,651.4335
73.2139,680.3245
73.2799,614.4555
73.3459,620.342
73.4119,672.5692
73.4779,642.6015
73.5439,661.6213
73.6099,639.1181
73.6759,649.2698
73.7419,643.9297
73.8079,690.2448
73.8739,624.0267
73.9399,666.5264
74.0059,662.9618
74.0719,641.1772
74.1379,641.5574
74.2039,663.8058
74.2699,654.9201
74.3359,620.9486
74.4019,664.3686
74.4679,635.3184
74.5339,615.6962
74.5999,624.9014
74.6659,609.1059
74.7319,663.9835
74.7979,633.3302
74.8639,634.1504
74.9299,656.239
74.9959,660.3764
75.0619,672.0976
75.1279,600.687
75.1939,661.7287
75.2599,667.4646
75.3259,622.4424
75.3919,672.0517
75.4579,683.6546
75.5239,666.6738
75.5899,691.708
75.6559,694.3939
75.7219,684.6044
75.7879,741.801
75.8539,829.5577
75.9199,1201.89
75.9859,2530.61
76.0519,1793.95
76.1179,1100.3
76.1839,1633.18
76.2499,1186.72
76.3159,765.382
76.3819,679.4276
76.4479,644.5351
76.5139,614.1947
76.5799,655.2658
76.6459,669.221
76.7119,626.9305
76.7779,621.7108
76.8439,670.7346
76.9099,614.5899
76.9759,619.0766
77.0419,582.7608
77.1079,628.3392
77.1739,603.0503
77.2399,620.8009
77.3059,639.0767
77.3719,643.7728
77.4379,616.8054
77.5039,658.9338
77.5699,656.7758
77.6359,642.8672
77.7019,614.7671
77.7679,626.6607
77.8339,641.2218
77.8999,651.9027
77.9659,660.0913
78.0319,629.8676
78.0979,766.5344
78.1639,1040.54
78.2299,1001.56
78.2959,799.9908
78.3619,871.0002
78.4279,872.8979
78.4939,715.5662
78.5599,666.6638
78.6259,615.0884
78.6919,618.8938
78.7579,664.8703
78.8239,623.5931
78.8899,639.1119
78.9559,618.0558
79.0219,663.6633
79.0879,635.5782
79.1539,627.1477
79.2199,633.133
79.2859,614.0974
79.3519,632.4616
79.4179,633.4336
79.4839,643.4232
79.5499,652.3216
79.6159,644.0179
79.6819,610.9793
79.7479,654.6713
79.8139,661.8847
79.8799,652.6754
79.9459,628.8614
79.9899,676.5427