File: RP-XRD-S2-2022/S25.csv
Angle,Counts
6.3714,2434.32
6.4264,2411.23
6.4814,2477.2
6.5364,2417.52
6.5914,2340.38
6.6464,2227.546
6.7014,2335.98
6.7564,2406.66
6.8114,2347.46
6.8664,2273.14
6.9214,2227.489
6.9764,2245.01
7.0314,2218
7.0864,2201.62
7.1414,2208.28
7.1964,2256.64
7.2514,2148.18
7.3064,2181.44
7.3614,2159.68
7.4164,2101.63
7.4714,2032.89
7.5264,2173.65
7.5814,2135.79
7.6364,2121.53
7.6914,2053.2
7.7464,2041.2
7.8014,2030.13
7.8564,2011.64
7.9114,2035.77
7.9664,2015.13
8.0214,1970.22
8.0764,1994.91
8.1314,1944.16
8.1864,1982.05
8.2414,1939.41
8.2964,1893.36
8.3514,2086.59
8.4064,1937.7
8.4614,1895.99
8.5164,1855.64
8.5714,1940.571
8.6264,1851.05
8.6814,1879.08
8.7364,1863.64
8.7914,1894.17
8.8464,1833.11
8.9014,1914.518
8.9564,1790.21
9.0114,1801.121
9.0664,1815.67
9.1214,1847.15
9.1764,1838.79
9.2314,1823.71
9.2864,1804.17
9.3414,1818.68
9.3964,1863.44
9.4514,1767.15
9.5064,1755.509
9.5614,1744.04
9.6164,1761.995
9.6714,1748.49
9.7264,1754.87
9.7814,1784.337
9.8364,1719.92
9.8914,1755.61
9.9464,1694.49
10.0014,1786.37
10.0564,1696.68
10.1114,1776.47
10.1664,1766.66
10.2214,1799.226
10.2764,1772.453
10.3314,1748.627
10.3864,1648.85
10.4414,1707.19
10.4964,1708.02
10.5514,1618.82
10.6064,1688.95
10.6614,1638.99
10.7164,1637.08
10.7714,1680.52
10.8264,1647.7
10.8814,1666.5
10.9364,1589.83
10.9914,1627.17
11.0464,1707.63
11.1014,1622.542
11.1564,1573.62
11.2114,1632.97
11.2664,1565.53
11.3214,1587.08
11.3764,1502.66
11.4314,1570.4
11.4864,1585.62
11.5414,1579.488
11.5964,1551.69
11.6514,1598.247
11.7064,1545.93
11.7614,1562.69
11.8164,1549.72
11.8714,1506.35
11.9264,1455.18
11.9814,1526.03
12.0364,1539.73
12.0914,1628.74
12.1464,1582.56
12.2014,1563.38
12.2564,1497.58
12.3114,1481.35
12.3664,1520.07
12.4214,1520.13
12.4764,1546.97
12.5314,1532.31
12.5864,1542.93
12.6414,1531.01
12.6964,1505.47
12.7514,1527.29
12.8064,1503.579
12.8614,1416.83
12.9164,1503.3
12.9714,1430.97
13.0264,1462.37
13.0814,1436.46
13.1364,1434.76
13.1914,1392.66
13.2464,1487.78
13.3014,1464.92
13.3564,1505.63
13.4114,1431.75
13.4664,1489.52
13.5214,1491.35
13.5764,1435.11
13.6314,1371.8
13.6864,1413.13
13.7414,1480.178
13.7964,1393.99
13.8514,1445.01
13.9064,1373.07
13.9614,1436.32
14.0164,1353.66
14.0714,1403.44
14.1264,1377.45
14.1814,1432.03
14.2364,1388.17
14.2914,1464.588
14.3464,1490.84
14.4014,1425.15
14.4564,1461.18
14.5114,1407.84
14.5664,1396.83
14.6214,1378.72
14.6764,1385.34
14.7314,1276.22
14.7864,1304.17
14.8414,1339.729
14.8964,1322.1
14.9514,1256.12
15.0064,1276.43
15.0614,1305.61
15.1164,1233.76
15.1714,1277.88
15.2264,1293.37
15.2814,1295.56
15.3364,1251
15.3914,1256.66
15.4464,1257.24
15.5014,1231.52
15.5564,1299.73
15.6114,1199.12
15.6664,1203.2
15.7214,1226.26
15.7764,1325.121
15.8314,1311.89
15.8864,1298.82
15.9414,1242.61
15.9964,1227.23
16.0514,1332.38
16.1064,1321.48
16.1614,1258.65
16.2164,1183.63
16.2714,1152.22
16.3264,1212.5
16.3814,1131.38
16.4364,1192.47
16.4914,1238.37
16.5464,1167.84
16.6014,1203.93
16.6564,1170.33
16.7114,1184.34
16.7664,1191.29
16.8214,1123.86
16.8764,1123.35
16.9314,1127.96
16.9864,1115.18
17.0414,1155.19
17.0964,1116.57
17.1514,1134.67
17.2064,1107.2
17.2614,1110.98
17.3164,1115.57
17.3714,1189.13
17.4264,1141.91
17.4814,1142.66
17.5364,1139.84
17.5914,1063.9
17.6464,1089.59
17.7014,1124.35
17.7564,1100.85
17.8114,1116.94
17.8664,1086.56
17.9214,1087.57
17.9764,1014.82
18.0314,1030.71
18.0864,1051.93
18.1414,1076.39
18.1964,1080.814
18.2514,1077.84
18.3064,1075.16
18.3614,1092.38
18.4164,1055.77
18.4714,1081.43
18.5264,1035.44
18.5814,1026.126
18.6364,1065.52
18.6914,999.9779
18.7464,1003.66
18.8014,1023.06
18.8564,1038.418
18.9114,1019.45
18.9664,1055.57
19.0214,1043.92
19.0764,1074.66
19.1314,1046.11
19.1864,1026.6
19.2414,1006.33
19.2964,1024.93
19.3514,1050.96
19.4064,1014.92
19.4614,1018.2
19.5164,1030.59
19.5714,977.0933
19.6264,1044.85
19.6814,1025.813
19.7364,1021.92
19.7914,1018.581
19.8464,1021.79
19.9014,1001.74
19.9564,1078.15
20.0114,943.3691
20.0664,1026.47
20.1214,948.0116
20.1764,1005.08
20.2314,979.9873
20.2864,976.9933
20.3414,1002.53
20.3964,986.4255
20.4514,961.7685
20.5064,984.9673
20.5614,1017.06
20.6164,1059.27
20.6714,1050.06
20.7264,973.3501
20.7814,935.0883
20.8364,1058.08
20.8914,961.358
20.9464,1006.5
21.0014,998.9376
21.0564,1036.77
21.1114,1019.45
21.1664,1031.17
21.2214,1164.46
21.2764,1215.22
21.3314,1097.19
21.3864,1022.82
21.4414,1016.75
21.4964,1010.92
21.5514,998.7929
21.6064,945.5802
21.6614,968.1898
21.7164,974.6587
21.7714,962.8297
21.8264,972.2895
21.8814,1054.12
21.9364,1093.6
21.9914,1044.66
22.0464,1007.62
22.1014,960.3692
22.1564,931.9792
22.2114,939.1143
22.2664,934.6238
22.3214,952.2668
22.3764,894.7081
22.4314,954.3264
22.4864,920.5196
22.5414,901.0132
22.5964,938.3419
22.6514,920.6351
22.7064,917.8332
22.7614,935.8634
22.8164,894.9367
22.8714,962.4328
22.9264,959.4127
22.9814,931.4209
23.0364,978.5405
23.0914,981.6161
23.1464,980.2274
23.2014,948.258
23.2564,951.0328
23.3114,957.5499
23.3664,929.626
23.4214,994.4736
23.4764,1016.63
23.5314,1039.6
23.5864,1047.31
23.6414,1061.04
23.6964,1028.41
23.7514,1076.56
23.8064,1134.81
23.8614,1103.86
23.9164,1185.66
23.9714,1332.83
24.0264,1438.91
24.0814,2319.81
24.1364,3314.48
24.1914,7133.44
24.2464,16237.1
24.3014,13482.3
24.3564,4321.56
24.4114,1526.396
24.4664,1356.9
24.5214,1253.65
24.5764,1133.32
24.6314,1085.47
24.6864,1060.34
24.7414,990.4209
24.7964,991.5036
24.8514,969.1117
24.9064,987.5187
24.9614,958.1781
25.0164,960.7708
25.0714,959.8351
25.1264,896.0941
25.1814,991.7965
25.2364,895.7271
25.2914,922.6409
25.3464,937.6857
25.4014,914.8441
25.4564,948.9954
25.5114,959.7246
25.5664,948.149
25.6214,968.7326
25.6764,969.399
25.7314,880.4662
25.7864,904.2325
25.8414,914.9141
25.8964,924.2766
25.9514,913.9876
26.0064,917.8652
26.0614,943.3195
26.1164,956.3045
26.1714,936.7941
26.2264,930.0561
26.2814,956.6405
26.3364,867.3499
26.3914,925.486
26.4464,878.1714
26.5014,855.3603
26.5564,900.1973
26.6114,884.4404
26.6664,923.4911
26.7214,930.4734
26.7764,947.4538
26.8314,935.1245
26.8864,994.2595
26.9414,912.6677
26.9964,926.734
27.0514,873.0319
27.1064,855.0161
27.1614,849.5391
27.2164,781.4951
27.2714,894.7075
27.3264,883.3797
27.3814,933.105
27.4364,941.0899
27.4914,927.308
27.5464,890.6655
27.6014,849.1176
27.6564,874.7496
27.7114,886.8946
27.7664,886.7993
27.8214,875.4841
27.8764,1001.92
27.9314,1042.94
27.9864,1146.67
28.0414,1518.29
28.0964,1531.6
28.1514,1233.101
28.2064,991.4166
28.2614,933.3233
28.3164,898.8704
28.3714,910.3871
28.4264,845.628
28.4814,849.7555
28.5364,869.2778
28.5914,841.0452
28.6464,844.313
28.7014,856.5903
28.7564,858.0397
28.8114,891.499
28.8664,848.768
28.9214,897.7587
28.9764,861.435
29.0314,852.9116
29.0864,860.1933
29.1414,862.2362
29.1964,877.5687
29.2514,855.0597
29.3064,850.951
29.3614,890.3597
29.4164,874.2434
29.4714,895.041
29.5264,888.9441
29.5814,826.6695
29.6364,886.7102
29.6914,935.3932
29.7464,1017.56
29.8014,998.7731
29.8564,973.3647
29.9114,892.1117
29.9664,876.2926
30.0214,842.4591
30.0764,839.7163
30.1314,860.5216
30.1864,923.1777
30.2414,1061
30.2964,1066.58
30.3514,1070.23
30.4064,1115.93
30.4614,1233.45
30.5164,1401.428
30.5714,1589.59
30.6264,1809.13
30.6814,1910.64
30.7364,2132.92
30.7914,3012.43
30.8464,5431.019
30.9014,13117.3
30.9564,32782.9
31.0114,79231.9
31.0664,59332
31.1214,26683.5
31.1764,4697.077
31.2314,2759.92
31.2864,2245.505
31.3414,2009.026
31.3964,1776.11
31.4514,1527.81
31.5064,1232.54
31.5614,1241.41
31.6164,1163.75
31.6714,1036.9
31.7264,997.0667
31.7814,1011.903
31.8364,1075.85
31.8914,1244.03
31.9464,1637.804
32.0014,2338.91
32.0564,1898.2
32.1114,1332.77
32.1664,1026.29
32.2214,1080.48
32.2764,1381.51
32.3314,1521.69
32.3864,1347.51
32.4414,1170.11
32.4964,1560.69
32.5514,2246.61
32.6064,1827.224
32.6614,1248.096
32.7164,1006.824
32.7714,996.0368
32.8264,977.9914
32.8814,927.3223
32.9364,899.0006
32.9914,950.2214
33.0464,909.6354
33.1014,882.1186
33.1564,864.9547
33.2114,861.5641
33.2664,875.6006
33.3214,820.6157
33.3764,830.1872
33.4314,813.2858
33.4864,841.1427
33.5414,840.0326
33.5964,767.0447
33.6514,806.3846
33.7064,822.5017
33.7614,801.1528
33.8164,795.5692
33.8714,797.7086
33.9264,833.3077
33.9814,755.3182
34.0364,831.4852
34.0914,833.6198
34.1464,811.3201
34.2014,919.0841
34.2564,1185.47
34.3114,1416.42
34.3664,1226.19
34.4214,1004.26
34.4764,876.1076
34.5314,799.6581
34.5864,764.7603
34.6414,780.3814
34.6964,799.2726
34.7514,752.9507
34.8064,745.9134
34.8614,744.339
34.9164,767.2794
34.9714,777.4414
35.0264,795.5011
35.0814,795.8598
35.1364,839.6487
35.1914,846.3618
35.2464,794.0434
35.3014,737.4601
35.3564,740.7368
35.4114,732.5625
35.4664,751.1482
35.5214,806.6352
35.5764,787.6846
35.6314,731.3001
35.6864,753.1626
35.7414,818.0031
35.7964,931.426
35.8514,940.0098
35.9064,870.7012
35.9614,784.0577
36.0164,768.836
36.0714,741.881
36.1264,710.611
36.1814,729.6622
36.2364,688.5424
36.2914,679.0602
36.3464,719.6309
36.4014,748.6175
36.4564,739.4983
36.5114,741.1189
36.5664,688.2724
36.6214,745.5642
36.6764,713.1057
36.7314,695.0788
36.7864,706.5265
36.8414,684.5962
36.8964,710.1214
36.9514,655.6727
37.0064,693.1411
37.0614,642.2218
37.1164,703.2825
37.1714,636.7699
37.2264,713.6464
37.2814,637.6974
37.3364,685.9867
37.3914,714.2766
37.4464,680.673
37.5014,724.6356
37.5564,651.7143
37.6114,680.4567
37.6664,690.6513
37.7214,611.487
37.7764,626.5038
37.8314,660.8298
37.8864,662.8933
37.9414,641.2492
37.9964,647.5877
38.0514,650.7951
38.1064,683.4702
38.1614,674.6131
38.2164,631.2964
38.2714,643.531
38.3264,647.2307
38.3814,629.326
38.4364,646.6618
38.4914,699.5444
38.5464,697.6858
38.6014,634.3418
38.6564,668.4695
38.7114,672.2613
38.7664,656.8024
38.8214,642.6235
38.8764,658.8168
38.9314,613.9343
38.9864,621.6526
39.0414,683.9193
39.0964,622.3548
39.1514,675.9514
39.2064,635.4852
39.2614,591.0765
39.3164,653.1012
39.3714,643.87
39.4264,639.1416
39.4814,629.7723
39.5364,634.3309
39.5914,678.7431
39.6464,633.251
39.7014,636.1136
39.7564,609.9112
39.8114,641.9133
39.8664,637.5101
39.9214,659.4123
39.9764,646.2295
40.0314,641.4499
40.0864,620.7333
40.1414,639.1517
40.1964,641.849
40.2514,622.6991
40.3064,642.0919
40.3614,648.1515
40.4164,680.7509
40.4714,636.0387
40.5264,642.5235
40.5814,723.7727
40.6364,645.9788
40.6914,666.1182
40.7464,657.9191
40.8014,676.2521
40.8564,670.4008
40.9114,652.7002
40.9664,636.1873
41.0214,650.5184
41.0764,664.5831
41.1314,697.0053
41.1864,625.8594
41.2414,626.1165
41.2964,634.0511
41.3514,636.5639
41.4064,617.7082
41.4614,593.7139
41.5164,597.4659
41.5714,698.6738
41.6264,644.5381
41.6814,671.6636
41.7364,665.1509
41.7914,627.2805
41.8464,630.2829
41.9014,624.2999
41.9564,649.7733
42.0114,686.0278
42.0664,696.0517
42.1214,676.2678
42.1764,677.0647
42.2314,644.0522
42.2864,686.5495
42.3414,684.3041
42.3964,675.4508
42.4514,749.9581
42.5064,839.2634
42.5614,1054.2
42.6164,2107.14
42.6714,4834.83
42.7264,4954.22
42.7814,3382.91
42.8364,1897.17
42.8914,860.8047
42.9464,740.0708
43.0014,653.1968
43.0564,704.2078
43.1114,692.9353
43.1664,679.6331
43.2214,685.3502
43.2764,682.7613
43.3314,621.3398
43.3864,646.9936
43.4414,620.9395
43.4964,618.1445
43.5514,614.2062
43.6064,632.5534
43.6614,601.4325
43.7164,627.0165
43.7714,600.0695
43.8264,631.6302
43.8814,618.9595
43.9364,627.5141
43.9914,632.5589
44.0464,660.4531
44.1014,644.231
44.1564,631.0666
44.2114,637.6812
44.2664,575.0557
44.3214,573.7059
44.3764,577.0961
44.4314,575.6369
44.4864,603.4534
44.5414,530.6494
44.5964,608.4993
44.6514,565.1936
44.7064,557.6006
44.7614,587.8516
44.8164,567.2116
44.8714,571.8301
44.9264,576.7801
44.9814,579.8548
45.0364,633.4204
45.0914,564.6614
45.1464,632.4035
45.2014,577.165
45.2564,585.7703
45.3114,574.9038
45.3664,542.7218
45.4214,577.9236
45.4764,583.5296
45.5314,537.359
45.5864,577.0941
45.6414,558.8544
45.6964,579.5094
45.7514,578.6961
45.8064,612.0729
45.8614,646.2074
45.9164,694.3187
45.9714,708.0702
46.0264,926.5641
46.0814,1756.08
46.1364,3786.21
46.1914,4028.23
46.2464,2549.09
46.3014,1893.17
46.3564,790.7279
46.4114,688.3347
46.4664,630.6086
46.5214,632.0598
46.5764,579.7203
46.6314,601.532
46.6864,601.2856
46.7414,573.2099
46.7964,569.0415
46.8514,588.0502
46.9064,637.9366
46.9614,671.0586
47.0164,830.7356
47.0714,1448.05
47.1264,2804.53
47.1814,2140.5
47.2364,1806.77
47.2914,1145.1
47.3464,677.65
47.4014,621.6337
47.4564,598.2079
47.5114,608.3995
47.5664,587.4425
47.6214,577.0766
47.6764,540.4069
47.7314,535.9854
47.7864,579.192
47.8414,553.547
47.8964,530.5044
47.9514,539.2439
48.0064,554.1934
48.0614,513.7125
48.1164,545.3266
48.1714,577.8989
48.2264,581.9758
48.2814,568.0646
48.3364,554.9788
48.3914,538.5944
48.4464,535.6916
48.5014,519.9371
48.5564,532.5135
48.6114,567.6905
48.6664,551.3129
48.7214,571.5075
48.7764,551.778
48.8314,571.5724
48.8864,580.9002
48.9414,696.8619
48.9964,582.8332
49.0514,614.7786
49.1064,564.8738
49.1614,577.1756
49.2164,558.4333
49.2714,589.833
49.3264,543.4419
49.3814,563.4272
49.4364,589.0086
49.4914,641.7572
49.5464,650.3739
49.6014,950.3033
49.6564,2272.26
49.7114,3743.89
49.7664,2216.05
49.8214,2168.62
49.8764,1121.6
49.9314,647.7401
49.9864,600.2616
50.0414,550.6742
50.0964,559.2493
50.1514,525.3975
50.2064,550.867
50.2614,495.2076
50.3164,547.929
50.3714,527.1668
50.4264,491.2115
50.4814,532.8853
50.5364,537.1197
50.5914,558.3145
50.6464,576.0901
50.7014,549.8897
50.7564,535.8084
50.8114,506.5468
50.8664,488.2643
50.9214,516.0726
50.9764,487.8018
51.0314,504.9346
51.0864,471.4081
51.1414,496.9416
51.1964,495.0957
51.2514,491.2563
51.3064,480.8659
51.3614,459.4899
51.4164,460.7933
51.4714,504.6303
51.5264,475.6323
51.5814,512.1734
51.6364,492.6081
51.6914,474.7638
51.7464,495.682
51.8014,483.7492
51.8564,485.9276
51.9114,495.0688
51.9664,495.5231
52.0214,480.9674
52.0764,507.3435
52.1314,477.3738
52.1864,454.9329
52.2414,478.626
52.2964,505.8244
52.3514,474.7869
52.4064,459.3717
52.4614,495.2055
52.5164,474.2864
52.5714,475.114
52.6264,464.5253
52.6814,490.9879
52.7364,500.5317
52.7914,480.6773
52.8464,520.843
52.9014,532.8669
52.9564,537.5076
53.0114,457.4348
53.0664,519.6886
53.1214,487.5436
53.1764,527.7787
53.2314,535.448
53.2864,524.2728
53.3414,522.336
53.3964,538.89
53.4514,541.7931
53.5064,583.7556
53.5614,645.0091
53.6164,1035.58
53.6714,2304.74
53.7264,2951.44
53.7814,1687.315
53.8364,1856.7
53.8914,941.6706
53.9464,615.8575
54.0014,545.3396
54.0564,503.5726
54.1114,505.6538
54.1664,501.1955
54.2214,479.9461
54.2764,491.8393
54.3314,459.1437
54.3864,460.8076
54.4414,461.7249
54.4964,457.9248
54.5514,460.152
54.6064,477.3613
54.6614,459.5432
54.7164,418.5521
54.7714,427.9664
54.8264,460.8837
54.8814,477.3153
54.9364,453.1974
54.9914,441.1087
55.0464,452.3639
55.1014,440.9661
55.1564,470.7615
55.2114,484.8728
55.2664,535.4369
55.3214,489.4254
55.3764,483.0919
55.4314,475.4139
55.4864,502.108
55.5414,488.7517
55.5964,471.3853
55.6514,498.0262
55.7064,463.8962
55.7614,498.1641
55.8164,509.5718
55.8714,525.9582
55.9264,520.8503
55.9814,481.1887
56.0364,493.3003
56.0914,464.3125
56.1464,472.7745
56.2014,479.2752
56.2564,492.6162
56.3114,496.7024
56.3664,471.493
56.4214,455.7101
56.4764,482.8102
56.5314,476.2489
56.5864,465.7256
56.6414,476.3703
56.6964,432.9666
56.7514,486.9881
56.8064,451.3498
56.8614,440.4041
56.9164,455.7862
56.9714,499.9224
57.0264,484.1359
57.0814,493.5652
57.1364,514.3612
57.1914,471.0576
57.2464,473.9934
57.3014,471.2405
57.3564,449.584
57.4114,462.0018
57.4664,439.2157
57.5214,460.5404
57.5764,455.8537
57.6314,459.8175
57.6864,480.3639
57.7414,458.1193
57.7964,465.1338
57.8514,471.4739
57.9064,467.5477
57.9614,489.0296
58.0164,478.3788
58.0714,447.6629
58.1264,485.529
58.1814,479.7737
58.2364,505.0922
58.2914,460.8449
58.3464,470.1257
58.4014,495.6469
58.4564,525.608
58.5114,577.4915
58.5664,684.2798
58.6214,675.3607
58.6764,689.5574
58.7314,745.3591
58.7864,998.2625
58.8414,2183.73
58.8964,5871.96
58.9514,9949.63
59.0064,4405.43
59.0614,4803.012
59.1164,3719.488
59.1714,1155.6
59.2264,711.0782
59.2814,662.2042
59.3364,630.2412
59.3914,550.1945
59.4464,559.7257
59.5014,679.5331
59.5564,710.9472
59.6114,563.8698
59.6664,603.0817
59.7214,507.6371
59.7764,459.7286
59.8314,456.5451
59.8864,485.6783
59.9414,431.5793
59.9964,456.4851
60.0514,488.3403
60.1064,450.1042
60.1614,442.524
60.2164,440.5064
60.2714,457.9556
60.3264,412.891
60.3814,368.3307
60.4364,400.9625
60.4914,411.7311
60.5464,389.7878
60.6014,403.7032
60.6564,422.3361
60.7114,424.4854
60.7664,419.3334
60.8214,396.6261
60.8764,438.6647
60.9314,410.451
60.9864,396.8781
61.0414,422.1538
61.0964,424.373
61.1514,397.1093
61.2064,399.1437
61.2614,403.1483
61.3164,412.6584
61.3714,414.9193
61.4264,431.163
61.4814,393.8666
61.5364,423.3494
61.5914,408.731
61.6464,411.0946
61.7014,429.4753
61.7564,406.0513
61.8114,449.0183
61.8664,393.881
61.9214,407.4505
61.9764,402.8557
62.0314,406.5211
62.0864,406.7654
62.1414,398.7221
62.1964,390.4708
62.2514,403.108
62.3064,398.8544
62.3614,458.9808
62.4164,462.9728
62.4714,444.4726
62.5264,429.3458
62.5814,454.6529
62.6364,449.0621
62.6914,462.7261
62.7464,439.0245
62.8014,409.7385
62.8564,425.6899
62.9114,427.8217
62.9664,426.2776
63.0214,425.0364
63.0764,403.0093
63.1314,440.1848
63.1864,423.6804
63.2414,428.6235
63.2964,419.5404
63.3514,426.6225
63.4064,443.0323
63.4614,435.354
63.5164,416.7773
63.5714,441.6718
63.6264,410.3546
63.6814,418.3583
63.7364,419.821
63.7914,398.8929
63.8464,437.3822
63.9014,388.3097
63.9564,465.0571
64.0114,446.6569
64.0664,403.6869
64.1214,436.5377
64.1764,441.2929
64.2314,452.0981
64.2864,445.7232
64.3414,469.8557
64.3964,442.4726
64.4514,479.373
64.5064,529.0699
64.5614,677.6658
64.6164,1367.778
64.6714,2250.58
64.7264,1613.28
64.7814,1183.81
64.8364,1382.45
64.8914,882.6296
64.9464,525.831
65.0014,513.6521
65.0564,508.9288
65.1114,520.9272
65.1664,704.6179
65.2214,1260.9
65.2764,959.9906
65.3314,674.179
65.3864,839.3299
65.4414,606.02
65.4964,457.0799
65.5514,419.415
65.6064,401.4821
65.6614,385.77
65.7164,405.3158
65.7714,381.3569
65.8264,416.9136
65.8814,406.7602
65.9364,410.0721
65.9914,413.2447
66.0464,408.2753
66.1014,398.4922
66.1564,402.7569
66.2114,367.0543
66.2664,392.8488
66.3214,425.1225
66.3764,410.6967
66.4314,398.2731
66.4864,378.6191
66.5414,392.0431
66.5964,413.2686
66.6514,382.3848
66.7064,400.755
66.7614,413.0531
66.8164,380.28
66.8714,406.2936
66.9264,380.6563
66.9814,402.8361
67.0364,398.1166
67.0914,398.384
67.1464,388.068
67.2014,396.1623
67.2564,383.8705
67.3114,379.5162
67.3664,396.5428
67.4214,385.1847
67.4764,423.6317
67.5314,469.7658
67.5864,530.7632
67.6414,432.3956
67.6964,427.2646
67.7514,459.4386
67.8064,422.0545
67.8614,404.8424
67.9164,402.6402
67.9714,393.7663
68.0264,393.8834
68.0814,371.5922
68.1364,397.018
68.1914,362.5379
68.2464,408.8912
68.3014,385.2729
68.3564,383.674
68.4114,352.7605
68.4664,397.4214
68.5214,352.8191
68.5764,407.4836
68.6314,411.1357
68.6864,378.8286
68.7414,398.0938
68.7964,375.6761
68.8514,395.3644
68.9064,389.8626
68.9614,381.1396
69.0164,385.7532
69.0714,390.6243
69.1264,371.6576
69.1814,346.9163
69.2364,374.6926
69.2914,384.0935
69.3464,421.3253
69.4014,363.8199
69.4564,378.6397
69.5114,401.2759
69.5664,388.3387
69.6214,384.4203
69.6764,401.2191
69.7314,372.3839
69.7864,378.5918
69.8414,370.6017
69.8964,374.6385
69.9514,405.3575
70.0064,393.4288
70.0614,401.9629
70.1164,372.5315
70.1714,380.0598
70.2264,400.8735
70.2814,390.9567
70.3364,396.5471
70.3914,429.1158
70.4464,456.3925
70.5014,486.7982
70.5564,493.0054
70.6114,470.0611
70.6664,551.427
70.7214,618.9639
70.7764,859.9228
70.8314,1711.12
70.8864,4083
70.9414,5635.628
70.9964,2522.15
71.0514,2405.393
71.1064,3100.69
71.1614,1563.27
71.2164,746.2147
71.2714,583.8722
71.3264,492.0263
71.3814,451
71.4364,454.1044
71.4914,407.4085
71.5464,406.1282
71.6014,415.8347
71.6564,410.9037
71.7114,418.8638
71.7664,384.4999
71.8214,421.8656
71.8764,394.091
71.9314,370.7018
71.9864,379.0511
72.0414,411.7569
72.0964,376.0624
72.1514,407.5185
72.2064,397.8191
72.2614,419.0581
72.3164,393.22
72.3714,391.0323
72.4264,388.2779
72.4814,400.0703
72.5364,389.3691
72.5914,345.2373
72.6464,397.2568
72.7014,351.5301
72.7564,398.2294
72.8114,379.2652
72.8664,385.4936
72.9214,365.4966
72.9764,374.3185
73.0314,376.1974
73.0864,380.9448
73.1414,358.1291
73.1964,376.7516
73.2514,337.3238
73.3064,374.6422
73.3614,362.4639
73.4164,368.8182
73.4714,333.971
73.5264,386.3314
73.5814,375.4714
73.6364,384.3332
73.6914,410.7987
73.7464,394.7001
73.8014,363.1203
73.8564,365.1068
73.9114,369.1177
73.9664,371.8212
74.0214,351.0873
74.0764,387.3723
74.1314,368.4614
74.1864,338.9881
74.2414,365.0607
74.2964,345.4358
74.3514,367.4811
74.4064,350.3039
74.4614,363.0182
74.5164,328.3619
74.5714,338.9422
74.6264,357.2579
74.6814,345.1812
74.7364,371.5877
74.7914,377.404
74.8464,349.7634
74.9014,338.1206
74.9564,360.3471
75.0114,366.9857
75.0664,341.8589
75.1214,363.7698
75.1764,345.2552
75.2314,359.3562
75.2864,356.3869
75.3414,396.1802
75.3964,375.6205
75.4514,401.0535
75.5064,424.3752
75.5614,396.9187
75.6164,385.3844
75.6714,442.984
75.7264,398.1228
75.7814,430.2535
75.8364,488.8098
75.8914,585.5974
75.9464,842.5421
76.0014,1170.4
76.0564,723.6964
76.1114,589.6688
76.1664,699.7782
76.2214,639.1299
76.2764,403.4984
76.3314,374.836
76.3864,344.0188
76.4414,382.8934
76.4964,376.9704
76.5514,370.2226
76.6064,345.8972
76.6614,376.4507
76.7164,364.0081
76.7714,363.0441
76.8264,378.2179
76.8814,344.255
76.9364,373.7508
76.9914,367.5507
77.0464,350.9427
77.1014,375.3797
77.1564,348.8686
77.2114,377.9248
77.2664,370.8365
77.3214,345.1601
77.3764,351.4267
77.4314,383.9893
77.4864,375.8162
77.5414,340.2556
77.5964,370.9002
77.6514,374.7575
77.7064,357.5596
77.7614,367.3737
77.8164,374.1226
77.8714,389.861
77.9264,365.9435
77.9814,394.8212
78.0364,364.6717
78.0914,428.2818
78.1464,546.5021
78.2014,581.2726
78.2564,458.2764
78.3114,412.7147
78.3664,476.8691
78.4214,411.7041
78.4764,358.0795
78.5314,372.9702
78.5864,346.7981
78.6414,380.1477
78.6964,363.505
78.7514,356.7516
78.8064,367.4882
78.8614,352.0759
78.9164,358.7535
78.9714,368.6008
79.0264,362.3511
79.0814,362.6201
79.1364,369.231
79.1914,360.96
79.2464,353.4019
79.3014,349.6532
79.3564,372.338
79.4114,384.8048
79.4664,358.9481
79.5214,341.384
79.5764,386.9183
79.6314,377.2899
79.6864,366
79.7414,374.971
79.7964,363.6866
79.8514,357.0296
79.9064,395.4874
79.9614,391.6651
79.9724,88.987