File: RP-XRD-S2-2022/S31.csv
Pos. [°2?],Intensity [Counts]
6.4219,5535.89
6.4879,5492.6
6.5539,5455.73
6.6199,5403.11
6.6859,5333.87
6.7519,5290.5
6.8179,5277.89
6.8839,5139.72
6.9499,5181.4
7.0159,5103.823
7.0819,5084.66
7.1479,5092.77
7.2139,5166.44
7.2799,5039.05
7.3459,5009.22
7.4119,5060.64
7.4779,4930.21
7.5439,4863.323
7.6099,4860.761
7.6759,5042.19
7.7419,4780.23
7.8079,4932.35
7.8739,4699.73
7.9399,4877.81
8.0059,4796.98
8.0719,4656.22
8.1379,4732.469
8.2039,4668.646
8.2699,4675.88
8.3359,4505.38
8.4019,4589.69
8.4679,4507.12
8.5339,4402.115
8.5999,4480.58
8.6659,4416.06
8.7319,4386.83
8.7979,4397.29
8.8639,4268.72
8.9299,4285.59
8.9959,4192.92
9.0619,4162.56
9.1279,3948.51
9.1939,4064.71
9.2599,4085.77
9.3259,3972.58
9.3919,4035.44
9.4579,4001.05
9.5239,3992.41
9.5899,3902.469
9.6559,3941.2
9.7219,3873.68
9.7879,3965.26
9.8539,3915.295
9.9199,3967.13
9.9859,3909.24
10.0519,3963.95
10.1179,4043.18
10.1839,4413.49
10.2499,4676.05
10.3159,4485.898
10.3819,3965.14
10.4479,3646.62
10.5139,3540.12
10.5799,3503.17
10.6459,3435.42
10.7119,3417.03
10.7779,3367.823
10.8439,3442.292
10.9099,3395.52
10.9759,3454.35
11.0419,3289.13
11.1079,3286.44
11.1739,3205.96
11.2399,3206.67
11.3059,3207.98
11.3719,3288.35
11.4379,3194.81
11.5039,3142.677
11.5699,3111.76
11.6359,3139.09
11.7019,3145.33
11.7679,3086.92
11.8339,3172.87
11.8999,3060.09
11.9659,2996.56
12.0319,3125.08
12.0979,3116.67
12.1639,3237.972
12.2299,3182.28
12.2959,3117.009
12.3619,3079.75
12.4279,3008.45
12.4939,2926.17
12.5599,2970.52
12.6259,2897.47
12.6919,2916.33
12.7579,2993.885
12.8239,3148.64
12.8899,2997.19
12.9559,3016.73
13.0219,2987.292
13.0879,2942.36
13.1539,2968.32
13.2199,3065.45
13.2859,3042.35
13.3519,3065.05
13.4179,3039.87
13.4839,3040.86
13.5499,3120.85
13.6159,3154.882
13.6819,3224.57
13.7479,3262.91
13.8139,3395.54
13.8799,3503.16
13.9459,3707.69
14.0119,3888.15
14.0779,4135.92
14.1439,4621.42
14.2099,5040.596
14.2759,5359.15
14.3419,5812.17
14.4079,5277.22
14.4739,4322.87
14.5399,3744.9
14.6059,3200.43
14.6719,3138.429
14.7379,3003.26
14.8039,2813.58
14.8699,2687.03
14.9359,2786.37
15.0019,2649.37
15.0679,2635.31
15.1339,2613.63
15.1999,2600.69
15.2659,2576.27
15.3319,2465.27
15.3979,2491.16
15.4639,2522.52
15.5299,2505.15
15.5959,2460.81
15.6619,2491.12
15.7279,2464.55
15.7939,2478.463
15.8599,2508.62
15.9259,2531.6
15.9919,2594.25
16.0579,2554.89
16.1239,2775.36
16.1899,2406.52
16.2559,2418.78
16.3219,2307.87
16.3879,2335.99
16.4539,2392.25
16.5199,2310.01
16.5859,2269.73
16.6519,2247.854
16.7179,2215.05
16.7839,2286.42
16.8499,2233.01
16.9159,2253.43
16.9819,2236.27
17.0479,2303.86
17.1139,2230.22
17.1799,2191.43
17.2459,2274.27
17.3119,2352.96
17.3779,2192.09
17.4439,2298.05
17.5099,2100.8
17.5759,2207.69
17.6419,2189.96
17.7079,2164.54
17.7739,2222.49
17.8399,2191.27
17.9059,2166.71
17.9719,2174.68
18.0379,2107.04
18.1039,2121.99
18.1699,2061.68
18.2359,2109.93
18.3019,2122.23
18.3679,2140.81
18.4339,2150.76
18.4999,2069.08
18.5659,2211.22
18.6319,2058.89
18.6979,2075
18.7639,2129.97
18.8299,2061.9
18.8959,2081.15
18.9619,2102.82
19.0279,2024.22
19.0939,2033.1
19.1599,2031.23
19.2259,2030.7
19.2919,2149.53
19.3579,2052.62
19.4239,2007.28
19.4899,2039.21
19.5559,2015.93
19.6219,2054.239
19.6879,2090.04
19.7539,2162.72
19.8199,2046.29
19.8859,2020.04
19.9519,2157.64
20.0179,2041.31
20.0839,2065.6
20.1499,2078.35
20.2159,2057.54
20.2819,2018.55
20.3479,2016.12
20.4139,2124.86
20.4799,2129.76
20.5459,2224.82
20.6119,2320.115
20.6779,2358.83
20.7439,2206.37
20.8099,2108.63
20.8759,2132.9
20.9419,2116.6
21.0079,2092.38
21.0739,2130.74
21.1399,2153.509
21.2059,2272.87
21.2719,2267.65
21.3379,2117.52
21.4039,2120.106
21.4699,2110.77
21.5359,2034.76
21.6019,2058.84
21.6679,2126.67
21.7339,2063.5
21.7999,2142.21
21.8659,2049.587
21.9319,2172.78
21.9979,2108.469
22.0639,2144.879
22.1299,2082.26
22.1959,2064.186
22.2619,2107.48
22.3279,2180.49
22.3939,2281.76
22.4599,2355.48
22.5259,2336.14
22.5919,2472.54
22.6579,2532.5
22.7239,2677.913
22.7899,2840.46
22.8559,3069.82
22.9219,3338.242
22.9879,3616.35
23.0539,3933.33
23.1199,4092.25
23.1859,3979.637
23.2519,3749.77
23.3179,3737.7
23.3839,3657.64
23.4499,3563.59
23.5159,3543.89
23.5819,3488.96
23.6479,3549.05
23.7139,3370.93
23.7799,3484.792
23.8459,3484.03
23.9119,3504.82
23.9779,3569.4
24.0439,3988.21
24.1099,4931.12
24.1759,8451.68
24.2419,16046
24.3079,11503.3
24.3739,4636.48
24.4399,3825.19
24.5059,3452.76
24.5719,3288.4
24.6379,3227.395
24.7039,3234.22
24.7699,3144.07
24.8359,3111.36
24.9019,3179.39
24.9679,3014.26
25.0339,3004.08
25.0999,2922.33
25.1659,2829.86
25.2319,2829.48
25.2979,2762.26
25.3639,2683.39
25.4299,2704.84
25.4959,2873.78
25.5619,3407.09
25.6279,3475.69
25.6939,3039.05
25.7599,2747.49
25.8259,2686.472
25.8919,2657.67
25.9579,2726.3
26.0239,2610.14
26.0899,2541.16
26.1559,2575
26.2219,2552.19
26.2879,2544.38
26.3539,2508.708
26.4199,2506.8
26.4859,2505.22
26.5519,2535.39
26.6179,2519.286
26.6839,2634.49
26.7499,2667.09
26.8159,2983.76
26.8819,2912.4
26.9479,2672.7
27.0139,2575.63
27.0799,2606.52
27.1459,2313.832
27.2119,2358.478
27.2779,2439.94
27.3439,2645.52
27.4099,2780.18
27.4759,3124.06
27.5419,2668.93
27.6079,2435.22
27.6739,2439.15
27.7399,2522.85
27.8059,2468.52
27.8719,2481.44
27.9379,2630.12
28.0039,2798.257
28.0699,3048.09
28.1359,3073.41
28.2019,2978.29
28.2679,2952.81
28.3339,2821.42
28.3999,2566.64
28.4659,2582.18
28.5319,2633.1
28.5979,2701.74
28.6639,2933.09
28.7299,3118.69
28.7959,3288.84
28.8619,3736.12
28.9279,4098.12
28.9939,4023.57
29.0599,3837.25
29.1259,3353.33
29.1919,3169
29.2579,3091.05
29.3239,2949.65
29.3899,2959.35
29.4559,2979.03
29.5219,2983.25
29.5879,3004.69
29.6539,2994.79
29.7199,3342.12
29.7859,3133.33
29.8519,2816.37
29.9179,2553.43
29.9839,2399.92
30.0499,2382.239
30.1159,2338.823
30.1819,2363.93
30.2479,2457.44
30.3139,2584.66
30.3799,2546.81
30.4459,2742.85
30.5119,3019.62
30.5779,3113.38
30.6439,3296.04
30.7099,4010.06
30.7759,5284.67
30.8419,6992.24
30.9079,13387.3
30.9739,40454.3
31.0399,75873.7
31.1059,36121.2
31.1719,6571.25
31.2379,4445.03
31.3039,3800.37
31.3699,3299.55
31.4359,2957.3
31.5019,2754.08
31.5679,2597.507
31.6339,2481.12
31.6999,2470.61
31.7659,2522.23
31.8319,2578.05
31.8979,3035.58
31.9639,3942.74
32.0299,3448.44
32.0959,2816.29
32.1619,2602.75
32.2279,2605.37
32.2939,2851.64
32.3599,2854.75
32.4259,3201.96
32.4919,5383.4
32.5579,8578.76
32.6239,5907.82
32.6899,3283.46
32.7559,2505.98
32.8219,2521.29
32.8879,2385.35
32.9539,2289.29
33.0199,2325.35
33.0859,2130.9
33.1519,2138.48
33.2179,2173.45
33.2839,2043.06
33.3499,2018.66
33.4159,2042.26
33.4819,1892.57
33.5479,1881.09
33.6139,1896.33
33.6799,1892.35
33.7459,1882.82
33.8119,1928.34
33.8779,1859.68
33.9439,1899.98
34.0099,1925.35
34.0759,1900.85
34.1419,1909.86
34.2079,2116.82
34.2739,2387.69
34.3399,2305.12
34.4059,2066.342
34.4719,1965.94
34.5379,1885
34.6039,1906.12
34.6699,1871.72
34.7359,1980.23
34.8019,2059.38
34.8679,2045.8
34.9339,1976.87
34.9999,1994.17
35.0659,2076.32
35.1319,2310.27
35.1979,2321.42
35.2639,2148.04
35.3299,1950.563
35.3959,1896.53
35.4619,1988.48
35.5279,2009.472
35.5939,2088.5
35.6599,1970.42
35.7259,1863.22
35.7919,1842.47
35.8579,1801.82
35.9239,1940.82
35.9899,1848.25
36.0559,1818.28
36.1219,1758.18
36.1879,1757.193
36.2539,1629.33
36.3199,1751.35
36.3859,1761.69
36.4519,1853.84
36.5179,1722.6
36.5839,1780.18
36.6499,1664.83
36.7159,1688.37
36.7819,1716.95
36.8479,1690.46
36.9139,1720.96
36.9799,1737.02
37.0459,1690.35
37.1119,1633.91
37.1779,1596.48
37.2439,1575.51
37.3099,1643.85
37.3759,1633.26
37.4419,1663.96
37.5079,1606.16
37.5739,1547.02
37.6399,1592.11
37.7059,1601.76
37.7719,1513.71
37.8379,1596.92
37.9039,1611.16
37.9699,1621.08
38.0359,1580.11
38.1019,1511.23
38.1679,1543.459
38.2339,1564.053
38.2999,1611.78
38.3659,1644.29
38.4319,1814.51
38.4979,2105.32
38.5639,2225.05
38.6299,2003.67
38.6959,1789.91
38.7619,1600.481
38.8279,1534.34
38.8939,1623.01
38.9599,1607.64
39.0259,1594.5
39.0919,1545.36
39.1579,1493.59
39.2239,1555.25
39.2899,1503.98
39.3559,1599.46
39.4219,1506.38
39.4879,1663.01
39.5539,1599.21
39.6199,1618.96
39.6859,1610.593
39.7519,1616.15
39.8179,1556.23
39.8839,1703.78
39.9499,1745.25
40.0159,1708.75
40.0819,1759.31
40.1479,1758.54
40.2139,1766.66
40.2799,1870.056
40.3459,1884.61
40.4119,1975.7
40.4779,2011.06
40.5439,1973.69
40.6099,2151.637
40.6759,2251.27
40.7419,2438.73
40.8079,2458.54
40.8739,2504.09
40.9399,2493.19
41.0059,2366.17
41.0719,2115.5
41.1379,2104.15
41.2039,2124.09
41.2699,2116.15
41.3359,2049.42
41.4019,2127.94
41.4679,2064.15
41.5339,2183.86
41.5999,2019.93
41.6659,2106.06
41.7319,2058.5
41.7979,2063.82
41.8639,2208.1
41.9299,2182.39
41.9959,2343.261
42.0619,2185.66
42.1279,2244.22
42.1939,2113.5
42.2599,2026.18
42.3259,1978.12
42.3919,1937.146
42.4579,2109.85
42.5239,2212.96
42.5899,2963.05
42.6559,6737.47
42.7219,6408.28
42.7879,5058.54
42.8539,2457.55
42.9199,2108.44
42.9859,2087.2
43.0519,1987.73
43.1179,2025.52
43.1839,2093.68
43.2499,2241.22
43.3159,2360.43
43.3819,2133.05
43.4479,1915.05
43.5139,1840.37
43.5799,1818.36
43.6459,1828.84
43.7119,1801.23
43.7779,1807.71
43.8439,1882.54
43.9099,1898.34
43.9759,2017.15
44.0419,2020.44
44.1079,2019.48
44.1739,2012.12
44.2399,2035.85
44.3059,1926.36
44.3719,1866.8
44.4379,1820.88
44.5039,1800.22
44.5699,1833.3
44.6359,1919.92
44.7019,1907.83
44.7679,1912.04
44.8339,2180.82
44.8999,2159.4
44.9659,2117.22
45.0319,1976.06
45.0979,2024.68
45.1639,1945.58
45.2299,1833.19
45.2959,1761.87
45.3619,1743.83
45.4279,1727.38
45.4939,1732.46
45.5599,1777.96
45.6259,1771.56
45.6919,1804.26
45.7579,1891.44
45.8239,1807.87
45.8899,1834.92
45.9559,1847.12
46.0219,2098.33
46.0879,3200.995
46.1539,5689.59
46.2199,3549.64
46.2859,2850.48
46.3519,1731.26
46.4179,1556.9
46.4839,1461.73
46.5499,1551.95
46.6159,1546.51
46.6819,1530.832
46.7479,1492.35
46.8139,1633.88
46.8799,1444.32
46.9459,1576.39
47.0119,1773.83
47.0779,2674.34
47.1439,3983.746
47.2099,2775.81
47.2759,2285.38
47.3419,1579.42
47.4079,1490.252
47.4739,1458.23
47.5399,1528.98
47.6059,1609.63
47.6719,1731.38
47.7379,1608.22
47.8039,1632.252
47.8699,1489.96
47.9359,1503
48.0019,1440.8
48.0679,1410
48.1339,1473.51
48.1999,1517.45
48.2659,1544.82
48.3319,1473.13
48.3979,1469.153
48.4639,1478.295
48.5299,1392
48.5959,1359.898
48.6619,1376.525
48.7279,1464.81
48.7939,1445.67
48.8599,1446.75
48.9259,1583.43
48.9919,1509.26
49.0579,1493.04
49.1239,1357.06
49.1899,1380.9
49.2559,1341.07
49.3219,1351.92
49.3879,1340.21
49.4539,1384.52
49.5199,1497.72
49.5859,1854.08
49.6519,3181.87
49.7179,4797.415
49.7839,3121.88
49.8499,2620.35
49.9159,1522.37
49.9819,1438.57
50.0479,1427.012
50.1139,1355.36
50.1799,1321.92
50.2459,1428.24
50.3119,1267.29
50.3779,1370.8
50.4439,1303.99
50.5099,1273.69
50.5759,1344.57
50.6419,1282.38
50.7079,1328.59
50.7739,1254.92
50.8399,1232.73
50.9059,1312.56
50.9719,1272.19
51.0379,1293.413
51.1039,1287.61
51.1699,1252.11
51.2359,1278.54
51.3019,1241.17
51.3679,1228.04
51.4339,1226.54
51.4999,1187.15
51.5659,1234.76
51.6319,1224.313
51.6979,1215.29
51.7639,1244.45
51.8299,1269.19
51.8959,1199.28
51.9619,1231.26
52.0279,1227.394
52.0939,1192.73
52.1599,1233.66
52.2259,1202.5
52.2919,1250.88
52.3579,1309.32
52.4239,1190.14
52.4899,1239.77
52.5559,1214.74
52.6219,1259.71
52.6879,1325.53
52.7539,1268.35
52.8199,1275.68
52.8859,1298.4
52.9519,1348.47
53.0179,1330.58
53.0839,1352
53.1499,1423.53
53.2159,1557.686
53.2819,1648
53.3479,1653
53.4139,1576.48
53.4799,1485.83
53.5459,1536.19
53.6119,1877.079
53.6779,3087.44
53.7439,2681.17
53.8099,2330.81
53.8759,1823.34
53.9419,1323.5
54.0079,1353.3
54.0739,1262.02
54.1399,1234.37
54.2059,1254.65
54.2719,1311.19
54.3379,1203.75
54.4039,1274.89
54.4699,1243.57
54.5359,1191.78
54.6019,1210.57
54.6679,1243.553
54.7339,1226.04
54.7999,1205.11
54.8659,1196.45
54.9319,1221.42
54.9979,1216.25
55.0639,1160.575
55.1299,1203.25
55.1959,1261.24
55.2619,1352.39
55.3279,1430.46
55.3939,1382.1
55.4599,1330.77
55.5259,1286.177
55.5919,1372.84
55.6579,1437.58
55.7239,1347.32
55.7899,1335.64
55.8559,1251.05
55.9219,1284.27
55.9879,1302.5
56.0539,1262.02
56.1199,1202.55
56.1859,1266.61
56.2519,1242.85
56.3179,1269.5
56.3839,1282.53
56.4499,1232.4
56.5159,1237.08
56.5819,1227.6
56.6479,1216.54
56.7139,1313.96
56.7799,1265.557
56.8459,1287.19
56.9119,1199.9
56.9779,1185.4
57.0439,1163.43
57.1099,1170.01
57.1759,1159.106
57.2419,1217.39
57.3079,1114.44
57.3739,1107.6
57.4399,1195.39
57.5059,1149.34
57.5719,1165.97
57.6379,1193.168
57.7039,1154.15
57.7699,1206.76
57.8359,1242.6
57.9019,1129.8
57.9679,1228.54
58.0339,1170.54
58.0999,1205.19
58.1659,1177.78
58.2319,1156.97
58.2979,1171.29
58.3639,1115.07
58.4299,1206.2
58.4959,1275.357
58.5619,1286.074
58.6279,1368.3
58.6939,1448.18
58.7599,1575.37
58.8259,2477.8
58.8919,5983.526
58.9579,7386.44
59.0239,4014.58
59.0899,4395.48
59.1559,1739.37
59.2219,1301.02
59.2879,1238.23
59.3539,1251.729
59.4199,1292.12
59.4859,1343.08
59.5519,1291.74
59.6179,1278.18
59.6839,1157.81
59.7499,1149.64
59.8159,1124.82
59.8819,1187.39
59.9479,1135.03
60.0139,1145.09
60.0799,1174.57
60.1459,1192.66
60.2119,1161.2
60.2779,1099.17
60.3439,1150.41
60.4099,1046.66
60.4759,1036.513
60.5419,1055.95
60.6079,1077.28
60.6739,1039.168
60.7399,1029.36
60.8059,1035.73
60.8719,1000.75
60.9379,1040.49
61.0039,1045.73
61.0699,1012.3
61.1359,988.8822
61.2019,1051.89
61.2679,1043.93
61.3339,1074.15
61.3999,1083.907
61.4659,1111.91
61.5319,1060.91
61.5979,1079.9
61.6639,1127.35
61.7299,1137
61.7959,1097.6
61.8619,1096.04
61.9279,1046.1
61.9939,1076.02
62.0599,1103.913
62.1259,1087.65
62.1919,1065.63
62.2579,1107.08
62.3239,1115.239
62.3899,1121.73
62.4559,1126.53
62.5219,1137.01
62.5879,1167.13
62.6539,1189.6
62.7199,1173.88
62.7859,1121.63
62.8519,1167
62.9179,1111.07
62.9839,1101.36
63.0499,1185.44
63.1159,1132.17
63.1819,1176.09
63.2479,1173.03
63.3139,1196.14
63.3799,1179.56
63.4459,1281.33
63.5119,1230.27
63.5779,1206.62
63.6439,1234.05
63.7099,1260.22
63.7759,1294.96
63.8419,1273.18
63.9079,1265.14
63.9739,1281.62
64.0399,1325.4
64.1059,1282.96
64.1719,1320.59
64.2379,1303.14
64.3039,1317.867
64.3699,1358.46
64.4359,1332.64
64.5019,1382.4
64.5679,1542.73
64.6339,2755.55
64.6999,3723.786
64.7659,2128.57
64.8319,2881.26
64.8979,1795.645
64.9639,1471.83
65.0299,1442.18
65.0959,1439.68
65.1619,1560.79
65.2279,1744.42
65.2939,1446.9
65.3599,1440.64
65.4259,1415.156
65.4919,1344.57
65.5579,1267.35
65.6239,1225.85
65.6899,1245.905
65.7559,1280.89
65.8219,1210.39
65.8879,1266.65
65.9539,1273.78
66.0199,1237.74
66.0859,1221.08
66.1519,1267.58
66.2179,1204.6
66.2839,1384.54
66.3499,1542.76
66.4159,1432.59
66.4819,1293.68
66.5479,1333.469
66.6139,1195.49
66.6799,1119.59
66.7459,1208.92
66.8119,1231.62
66.8779,1196.72
66.9439,1159.58
67.0099,1137.21
67.0759,1137.35
67.1419,1125.33
67.2079,1108.8
67.2739,1049.06
67.3399,1098.96
67.4059,1111.018
67.4719,1108.261
67.5379,1267.71
67.6039,1176.71
67.6699,1111.23
67.7359,1191.606
67.8019,1162.65
67.8679,1092.08
67.9339,1070.73
67.9999,1104.65
68.0659,1084.18
68.1319,1097.08
68.1979,1127.54
68.2639,1077.45
68.3299,1032.85
68.3959,1100.24
68.4619,1110.77
68.5279,1055.8
68.5939,1072.84
68.6599,1077.07
68.7259,1083.65
68.7919,1034.199
68.8579,1046.36
68.9239,1026.2
68.9899,1051.94
69.0559,1025.87
69.1219,1073.19
69.1879,1125.54
69.2539,1086.67
69.3199,1079.69
69.3859,1141.275
69.4519,1125
69.5179,1083.19
69.5839,1071.602
69.6499,1065.61
69.7159,1084.31
69.7819,1095.99
69.8479,1110.05
69.9139,1070.1
69.9799,1021.79
70.0459,1093.43
70.1119,1013.94
70.1779,1080.51
70.2439,1086.2
70.3099,1061.69
70.3759,1083.13
70.4419,1076.27
70.5079,1152.69
70.5739,1176.78
70.6399,1194.51
70.7059,1257.21
70.7719,1583.4
70.8379,2846.77
70.9039,5921.5
70.9699,3824.008
71.0359,2964.99
71.1019,3467.05
71.1679,1835.53
71.2339,1343.35
71.2999,1247.08
71.3659,1137.81
71.4319,1174.95
71.4979,1128.4
71.5639,1107.05
71.6299,1081.04
71.6959,1116.15
71.7619,1019.86
71.8279,1169.221
71.8939,1119.31
71.9599,1109.9
72.0259,1140.83
72.0919,1132.91
72.1579,1158.03
72.2239,1141.71
72.2899,1172.58
72.3559,1158.09
72.4219,1170.95
72.4879,1149.38
72.5539,1202.84
72.6199,1155.28
72.6859,1200.18
72.7519,1185.25
72.8179,1204.78
72.8839,1221.42
72.9499,1257.22
73.0159,1340.16
73.0819,1288.98
73.1479,1302.81
73.2139,1333.634
73.2799,1302.41
73.3459,1192.22
73.4119,1219.02
73.4779,1235.85
73.5439,1344.7
73.6099,1372.484
73.6759,1422.12
73.7419,1509.47
73.8079,1496.1
73.8739,1459.71
73.9399,1424.7
74.0059,1320.32
74.0719,1333.38
74.1379,1295.05
74.2039,1248.78
74.2699,1208.54
74.3359,1163.76
74.4019,1127.79
74.4679,1101.09
74.5339,1092.83
74.5999,1054.92
74.6659,1075.94
74.7319,1062.38
74.7979,1084.49
74.8639,1112.97
74.9299,1049.28
74.9959,1025.62
75.0619,1088.89
75.1279,1042.86
75.1939,1057.8
75.2599,1070.54
75.3259,1134.85
75.3919,1161.31
75.4579,1082.44
75.5239,1083.08
75.5899,1147.404
75.6559,1161.07
75.7219,1197.95
75.7879,1211.597
75.8539,1243.24
75.9199,1510.43
75.9859,1947.34
76.0519,1442.77
76.1179,1368.34
76.1839,1514.75
76.2499,1282.44
76.3159,1140.21
76.3819,1106.81
76.4479,1072
76.5139,1004.8
76.5799,971.226
76.6459,1008.84
76.7119,977.5439
76.7779,1005.2
76.8439,988.2699
76.9099,1003.73
76.9759,1035.16
77.0419,990.743
77.1079,987.5088
77.1739,1019.89
77.2399,1044.606
77.3059,1044.54
77.3719,1001.81
77.4379,1084.66
77.5039,1001.63
77.5699,1016
77.6359,954.1022
77.7019,1058.7
77.7679,1010.59
77.8339,953.9909
77.8999,983.7198
77.9659,952.363
78.0319,1000.04
78.0979,1047.44
78.1639,1163.89
78.2299,1057.982
78.2959,1031.24
78.3619,1104.33
78.4279,1020.34
78.4939,984.1063
78.5599,958.559
78.6259,1020.27
78.6919,975.4469
78.7579,981.6901
78.8239,946.7694
78.8899,987.6902
78.9559,953.025
79.0219,1019.33
79.0879,965.8069
79.1539,981.4542
79.2199,973.9557
79.2859,966.0642
79.3519,967.7591
79.4179,928.8587
79.4839,978.4574
79.5499,972.8551