File: RP-XRD-S2-2022/Sample_4_G4.csv
Pos. [°2?],Intensity [Counts]
5.1504,2918.05
5.2054,2803.72
5.2604,2844.31
5.3154,2751.5
5.3704,2624.45
5.4254,2559.11
5.4804,2439.19
5.5354,2374.73
5.5904,2392.46
5.6454,2309.04
5.7004,2265.37
5.7554,2270.98
5.8104,2143.5
5.8654,2070.57
5.9204,2111.94
5.9754,2073.26
6.0304,2035.54
6.0854,1972.91
6.1404,1950.59
6.1954,2042.14
6.2504,1968.1
6.3054,2030.05
6.3604,1929.48
6.4154,1926.99
6.4704,1911.9
6.5254,1897.39
6.5804,1852.92
6.6354,1857.43
6.6904,1857.825
6.7454,1862.37
6.8004,1852.08
6.8554,1912.83
6.9104,1864.92
6.9654,1815.94
7.0204,1810.4
7.0754,1820.98
7.1304,1840.51
7.1854,1817.01
7.2404,1822.12
7.2954,1891.23
7.3504,1785.69
7.4054,1767.33
7.4604,1744.33
7.5154,1805.72
7.5704,1681.86
7.6254,1786.67
7.6804,1736.2
7.7354,1691.54
7.7904,1723.028
7.8454,1774.27
7.9004,1742.25
7.9554,1682.74
8.0104,1717.12
8.0654,1722.08
8.1204,1744.1
8.1754,1737.34
8.2304,1736.15
8.2854,1716.51
8.3404,1659.78
8.3954,1656.06
8.4504,1678.27
8.5054,1752.21
8.5604,1707.9
8.6154,1699.24
8.6704,1693.28
8.7254,1620.04
8.7804,1734.32
8.8354,1690.94
8.8904,1651.64
8.9454,1656.91
9.0004,1656.89
9.0554,1689.37
9.1104,1671.61
9.1654,1656.46
9.2204,1730.44
9.2754,1754.6
9.3304,1683.96
9.3854,1655.17
9.4404,1705.88
9.4954,1667.44
9.5504,1667.72
9.6054,1728.76
9.6604,1641.797
9.7154,1754.22
9.7704,1688.54
9.8254,1709.825
9.8804,1699.23
9.9354,1718.4
9.9904,1729.63
10.0454,1726.2
10.1004,1712.22
10.1554,1822.04
10.2104,1840.11
10.2654,1835.6
10.3204,1792.2
10.3754,1798.23
10.4304,1701.43
10.4854,1652.64
10.5404,1670.1
10.5954,1609.48
10.6504,1637.75
10.7054,1623.78
10.7604,1597.78
10.8154,1619.11
10.8704,1637.94
10.9254,1656.08
10.9804,1621.06
11.0354,1635.68
11.0904,1599.559
11.1454,1623.62
11.2004,1569.51
11.2554,1592.68
11.3104,1576.79
11.3654,1518.34
11.4204,1609.54
11.4754,1587.47
11.5304,1601.37
11.5854,1622.35
11.6404,1565.6
11.6954,1581.07
11.7504,1637.94
11.8054,1532.21
11.8604,1559.66
11.9154,1492.29
11.9704,1608.4
12.0254,1550.34
12.0804,1624.23
12.1354,1735.537
12.1904,1556.36
12.2454,1551
12.3004,1538.23
12.3554,1517.03
12.4104,1543.09
12.4654,1515.37
12.5204,1535.267
12.5754,1518.06
12.6304,1516.94
12.6854,1594.28
12.7404,1471.65
12.7954,1527.78
12.8504,1545.97
12.9054,1508.99
12.9604,1495.94
13.0154,1531.92
13.0704,1528.07
13.1254,1480.54
13.1804,1525.29
13.2354,1525.51
13.2904,1470.81
13.3454,1484.7
13.4004,1517.99
13.4554,1533.56
13.5104,1497.04
13.5654,1509.86
13.6204,1479.42
13.6754,1460.36
13.7304,1607.75
13.7854,1527.357
13.8404,1527.72
13.8954,1515.19
13.9504,1497.35
14.0054,1574.75
14.0604,1550.78
14.1154,1569.45
14.1704,1537.02
14.2254,1664.01
14.2804,1629.68
14.3354,1737.39
14.3904,1715.58
14.4454,1686.18
14.5004,1654.78
14.5554,1613.23
14.6104,1669
14.6654,1607.15
14.7204,1506.18
14.7754,1428.42
14.8304,1439.64
14.8854,1415.58
14.9404,1325.1
14.9954,1369.04
15.0504,1353.01
15.1054,1420.68
15.1604,1378.07
15.2154,1318.64
15.2704,1451.772
15.3254,1360.91
15.3804,1364.28
15.4354,1332.89
15.4904,1362.35
15.5454,1341.83
15.6004,1373.39
15.6554,1317.42
15.7104,1335.646
15.7654,1418.8
15.8204,1315.25
15.8754,1375.876
15.9304,1301.48
15.9854,1300.938
16.0404,1359.73
16.0954,1320.69
16.1504,1398.54
16.2054,1356.239
16.2604,1344.268
16.3154,1256.81
16.3704,1304.33
16.4254,1347.73
16.4804,1321.43
16.5354,1305.82
16.5904,1330.95
16.6454,1265.29
16.7004,1295.74
16.7554,1299.9
16.8104,1335.9
16.8654,1293.74
16.9204,1298.69
16.9754,1321.79
17.0304,1362.2
17.0854,1324.1
17.1404,1319.71
17.1954,1371.773
17.2504,1260.33
17.3054,1288.45
17.3604,1213.62
17.4154,1291.15
17.4704,1275.54
17.5254,1282.65
17.5804,1205.28
17.6354,1295.25
17.6904,1258.33
17.7454,1223.31
17.8004,1318.56
17.8554,1274.28
17.9104,1229.04
17.9654,1312.5
18.0204,1254.21
18.0754,1282.81
18.1304,1285.41
18.1854,1283.2
18.2404,1273.49
18.2954,1270.14
18.3504,1301.845
18.4054,1282.46
18.4604,1218.94
18.5154,1238.65
18.5704,1289.71
18.6254,1229.67
18.6804,1203.56
18.7354,1305.27
18.7904,1256.68
18.8454,1218.99
18.9004,1235.77
18.9554,1250.02
19.0104,1206.15
19.0654,1195.78
19.1204,1279.86
19.1754,1235.118
19.2304,1220.57
19.2854,1210.95
19.3404,1213.76
19.3954,1265.29
19.4504,1223.5
19.5054,1248.35
19.5604,1178.06
19.6154,1230.92
19.6704,1226.69
19.7254,1232.26
19.7804,1206.35
19.8354,1207.01
19.8904,1222.2
19.9454,1224.63
20.0004,1240.28
20.0554,1188.534
20.1104,1181.56
20.1654,1213.43
20.2204,1241.46
20.2754,1237.73
20.3304,1232.95
20.3854,1219.82
20.4404,1234.57
20.4954,1192.18
20.5504,1229.02
20.6054,1268.58
20.6604,1244.82
20.7154,1200.54
20.7704,1258
20.8254,1250.93
20.8804,1186.11
20.9354,1306.97
20.9904,1289.04
21.0454,1238.416
21.1004,1197.285
21.1554,1233.49
21.2104,1224.87
21.2654,1276.77
21.3204,1264.29
21.3754,1269.8
21.4304,1200.35
21.4854,1244.83
21.5404,1197.29
21.5954,1219.14
21.6504,1224.17
21.7054,1241.53
21.7604,1216.97
21.8154,1223.11
21.8704,1282.53
21.9254,1270.31
21.9804,1271.8
22.0354,1261.01
22.0904,1254.73
22.1454,1227.56
22.2004,1211.7
22.2554,1214.81
22.3104,1220.53
22.3654,1259.32
22.4204,1223.505
22.4754,1221.83
22.5304,1221.63
22.5854,1220.83
22.6404,1234.27
22.6954,1216.99
22.7504,1227.439
22.8054,1211.49
22.8604,1265.37
22.9154,1303.19
22.9704,1325.3
23.0254,1368.85
23.0804,1392.27
23.1354,1387.242
23.1904,1448.31
23.2454,1410.47
23.3004,1398.677
23.3554,1432.51
23.4104,1344.8
23.4654,1354.9
23.5204,1365.31
23.5754,1340.74
23.6304,1399.26
23.6854,1378.54
23.7404,1400.33
23.7954,1384.37
23.8504,1429.08
23.9054,1434.17
23.9604,1554.18
24.0154,1478.33
24.0704,1630.62
24.1254,1870.28
24.1804,2660.06
24.2354,4673.31
24.2904,8123.41
24.3454,9086.87
24.4004,4127.02
24.4554,1729.41
24.5104,1592.78
24.5654,1628.396
24.6204,1477.06
24.6754,1408.121
24.7304,1396.55
24.7854,1349.29
24.8404,1351.31
24.8954,1325.93
24.9504,1297.12
25.0054,1295
25.0604,1337.02
25.1154,1310.17
25.1704,1304.07
25.2254,1347.95
25.2804,1262.96
25.3354,1323.28
25.3904,1182.14
25.4454,1287
25.5004,1234.44
25.5554,1302.11
25.6104,1293.901
25.6654,1318.87
25.7204,1377.9
25.7754,1324.76
25.8304,1291.98
25.8854,1286.25
25.9404,1239.016
25.9954,1302.169
26.0504,1289.98
26.1054,1214.31
26.1604,1296.9
26.2154,1181.91
26.2704,1237.13
26.3254,1216.365
26.3804,1279.95
26.4354,1224.46
26.4904,1200.758
26.5454,1222.33
26.6004,1218.13
26.6554,1216.28
26.7104,1236.72
26.7654,1225.07
26.8204,1234.04
26.8754,1256.82
26.9304,1262.66
26.9854,1212.92
27.0404,1207.169
27.0954,1257.78
27.1504,1312.2
27.2054,1230.339
27.2604,1174.53
27.3154,1265.59
27.3704,1227.43
27.4254,1206.84
27.4804,1234.57
27.5354,1199
27.5904,1178.53
27.6454,1195.68
27.7004,1154.71
27.7554,1225.25
27.8104,1216.17
27.8654,1223.11
27.9204,1138.68
27.9754,1239.54
28.0304,1322.713
28.0854,1353.97
28.1404,1268.93
28.1954,1246.66
28.2504,1198.36
28.3054,1362.23
28.3604,1310.63
28.4154,1264.6
28.4704,1154.77
28.5254,1145.061
28.5804,1172.33
28.6354,1208.34
28.6904,1202.8
28.7454,1168.59
28.8004,1247.61
28.8554,1290.5
28.9104,1267.27
28.9654,1266.38
29.0204,1316.15
29.0754,1285.98
29.1304,1290.4
29.1854,1217.41
29.2404,1190.01
29.2954,1238.21
29.3504,1297.98
29.4054,1286.54
29.4604,1208.8
29.5154,1225.58
29.5704,1237.32
29.6254,1209.78
29.6804,1162.92
29.7354,1143.13
29.7904,1214.43
29.8454,1227.87
29.9004,1203.79
29.9554,1207.86
30.0104,1130.01
30.0654,1136.59
30.1204,1191.92
30.1754,1163.64
30.2304,1208.32
30.2854,1226.76
30.3404,1257.899
30.3954,1218.33
30.4504,1272.71
30.5054,1325.17
30.5604,1413.12
30.6154,1516.56
30.6704,1582.392
30.7254,1656.27
30.7804,1840.76
30.8354,2274.47
30.8904,3296.39
30.9454,5923.8
31.0004,13527.963
31.0554,40054
31.1104,39034.6
31.1654,18983.4
31.2204,3980.19
31.2754,2212.9
31.3304,1919.86
31.3854,1752.2
31.4404,1582.05
31.4954,1434.997
31.5504,1324.58
31.6054,1236.02
31.6604,1194.62
31.7154,1179.92
31.7704,1193.77
31.8254,1218.7
31.8804,1295.57
31.9354,1423.28
31.9904,1431.46
32.0454,1409.661
32.1004,1331.71
32.1554,1230.71
32.2104,1165.02
32.2654,1170.9
32.3204,1163.41
32.3754,1097.7
32.4304,1168.257
32.4854,1226.36
32.5404,1231.08
32.5954,1299.17
32.6504,1284.47
32.7054,1193.248
32.7604,1191.32
32.8154,1180.56
32.8704,1178.27
32.9254,1183.26
32.9804,1188.04
33.0354,1209.118
33.0904,1214.77
33.1454,1257.71
33.2004,1488.42
33.2554,1716.39
33.3104,1780.96
33.3654,1596.84
33.4204,1386.59
33.4754,1223.32
33.5304,1153.323
33.5854,1133.71
33.6404,1127.38
33.6954,1088.23
33.7504,1065.36
33.8054,1049.43
33.8604,1036.27
33.9154,1066.42
33.9704,1074.23
34.0254,1068.68
34.0804,1027.06
34.1354,992.0284
34.1904,1018.28
34.2454,1014.9
34.3004,995.4888
34.3554,1057.86
34.4104,1005
34.4654,1057.97
34.5204,1039.09
34.5754,1059.86
34.6304,1057.25
34.6854,1009.98
34.7404,1009.4
34.7954,1050.92
34.8504,983.0694
34.9054,998.9167
34.9604,979.8473
35.0154,958.4751
35.0704,991.759
35.1254,1006.94
35.1804,1031.832
35.2354,982.9872
35.2904,998.9743
35.3454,961.5991
35.4004,944.7602
35.4554,921.5854
35.5104,973.3583
35.5654,912.1655
35.6204,916.4827
35.6754,921.8582
35.7304,928.8294
35.7854,906.882
35.8404,877.9171
35.8954,989.7764
35.9504,973.4351
36.0054,953.5754
36.0604,1001.01
36.1154,1025.94
36.1704,933.3807
36.2254,910.2861
36.2804,906.2091
36.3354,940.5785
36.3904,906.6047
36.4454,953.9743
36.5004,934.2626
36.5554,939.9583
36.6104,922.1724
36.6654,983.4869
36.7204,956.2923
36.7754,1016.617
36.8304,1085.629
36.8854,1198.4
36.9404,1666.63
36.9954,2516.62
37.0504,2652.57
37.1054,2052.56
37.1604,1379.1
37.2154,1079.97
37.2704,1004.09
37.3254,956.7344
37.3804,931.1909
37.4354,926.717
37.4904,893.6237
37.5454,898.6599
37.6004,878.1017
37.6554,848.5756
37.7104,875.2486
37.7654,905.9616
37.8204,929.5178
37.8754,862.6725
37.9304,893.2169
37.9854,904.2243
38.0404,861.1452
38.0954,917.2838
38.1504,920.0488
38.2054,935.4255
38.2604,919.6406
38.3154,979.8258
38.3704,1077.85
38.4254,1297.15
38.4804,1609.033
38.5354,1986.21
38.5904,2531.37
38.6454,1926.93
38.7004,1520.05
38.7554,1061.46
38.8104,999.1033
38.8654,1021.53
38.9204,947.4365
38.9754,908.3956
39.0304,900.0867
39.0854,902.1121
39.1404,859.5972
39.1954,879.3714
39.2504,855.4892
39.3054,842.6167
39.3604,858.9755
39.4154,877.7023
39.4704,804.1314
39.5254,838.6441
39.5804,803.1322
39.6354,830.7436
39.6904,863.8506
39.7454,822.2279
39.8004,838.1801
39.8554,875.4235
39.9104,876.5406
39.9654,904.4247
40.0204,844.5473
40.0754,871.3242
40.1304,833.5308
40.1854,825.0745
40.2404,809.3148
40.2954,885.6668
40.3504,893.2032
40.4054,791.4667
40.4604,818.3418
40.5154,870.7623
40.5704,834.6353
40.6254,907.2652
40.6804,904.3193
40.7354,891.2905
40.7904,928.8349
40.8454,898.1548
40.9004,977.9781
40.9554,1066.43
41.0104,938.328
41.0654,960.2829
41.1204,956.0136
41.1754,865.1538
41.2304,885.3892
41.2854,879.4666
41.3404,864.3135
41.3954,843.5633
41.4504,894.9472
41.5054,803.8036
41.5604,828.8888
41.6154,852.0176
41.6704,871.7969
41.7254,888.2712
41.7804,893.1768
41.8354,839.917
41.8904,865.0102
41.9454,858.4215
42.0004,872.7229
42.0554,855.7335
42.1104,862.6106
42.1654,903.1476
42.2204,843.4781
42.2754,864.2184
42.3304,832.5465
42.3854,858.1046
42.4404,877.1269
42.4954,915.6272
42.5504,958.8634
42.6054,1088.8
42.6604,1623.07
42.7154,3413.08
42.7704,4921.58
42.8254,2885.43
42.8804,2151.456
42.9354,1083.911
42.9904,1017.88
43.0454,985.1972
43.1004,1061.38
43.1554,1064
43.2104,1303.55
43.2654,1447.23
43.3204,1853.81
43.3754,1938.67
43.4304,1484.286
43.4854,1271.49
43.5404,997.1346
43.5954,887.5306
43.6504,918.2317
43.7054,883.4307
43.7604,839.689
43.8154,826.4059
43.8704,809.0162
43.9254,814.8049
43.9804,850.1512
44.0354,845.2816
44.0904,861.6331
44.1454,876.3327
44.2004,841.0101
44.2554,846.5308
44.3104,785.8808
44.3654,809.7203
44.4204,820.7947
44.4754,812.5028
44.5304,798.3097
44.5854,813.6286
44.6404,770.6515
44.6954,811.9355
44.7504,810.3981
44.8054,822.648
44.8604,790.3952
44.9154,808.8819
44.9704,925.2697
45.0254,814.5781
45.0804,846.7742
45.1354,831.8326
45.1904,847.2799
45.2454,803.4659
45.3004,810.3319
45.3554,769.2962
45.4104,812.5949
45.4654,842.461
45.5204,845.4163
45.5754,787.469
45.6304,799.864
45.6854,769.4178
45.7404,800.4717
45.7954,814.427
45.8504,810.1881
45.9054,786.3893
45.9604,805.8661
46.0154,877.6211
46.0704,958.6416
46.1254,1286.6
46.1804,2158.99
46.2354,2439.724
46.2904,1697.25
46.3454,1401.21
46.4004,863.8656
46.4554,769.9672
46.5104,810.056
46.5654,767.5485
46.6204,777.7236
46.6754,793.7955
46.7304,771.4292
46.7854,763.7344
46.8404,738.9194
46.8954,794.2805
46.9504,786.2132
47.0054,822.0907
47.0604,913.9916
47.1154,1279.44
47.1704,1931.99
47.2254,1947.94
47.2804,1485.16
47.3354,1269.99
47.3904,917.5944
47.4454,906.0398
47.5004,855.3287
47.5554,990.2034
47.6104,1069.419
47.6654,1309.86
47.7204,1597.71
47.7754,1373.3
47.8304,1198.63
47.8854,1007.005
47.9404,832.7612
47.9954,799.0255
48.0504,805.9648
48.1054,754.8534
48.1604,766.0904
48.2154,788.711
48.2704,756.5298
48.3254,726.8349
48.3804,722.6886
48.4354,767.4914
48.4904,722.119
48.5454,730.6458
48.6004,709.5183
48.6554,748.7874
48.7104,748.8214
48.7654,757.1992
48.8204,703.2293
48.8754,717.0591
48.9304,737.5879
48.9854,745.9743
49.0404,705.9605
49.0954,739.5479
49.1504,708.439
49.2054,731.611
49.2604,745.8201
49.3154,746.472
49.3704,749.2377
49.4254,722.2095
49.4804,772.1723
49.5354,767.7427
49.5904,793.5254
49.6454,1035.53
49.7004,1555.49
49.7554,2597.53
49.8104,2122.81
49.8654,1616.29
49.9204,1374.91
49.9754,804.8956
50.0304,756.7834
50.0854,739.1659
50.1404,749.3179
50.1954,709.1152
50.2504,757.1832
50.3054,709.6504
50.3604,712.1299
50.4154,664.0767
50.4704,662.3949
50.5254,642.2126
50.5804,699.8536
50.6354,723.4274
50.6904,674.7183
50.7454,671.8819
50.8004,640.1907
50.8554,668.9409
50.9104,669.9217
50.9654,681.3397
51.0204,686.4775
51.0754,674.7976
51.1304,684.8389
51.1854,677.6518
51.2404,678.5186
51.2954,668.0423
51.3504,674.0192
51.4054,661.548
51.4604,659.7158
51.5154,712.761
51.5704,680.7451
51.6254,719.6152
51.6804,701.345
51.7354,682.1203
51.7904,702.0866
51.8454,668.1148
51.9004,667.6506
51.9554,658.8233
52.0104,678.0266
52.0654,640.8181
52.1204,619.2409
52.1754,708.6994
52.2304,681.9408
52.2854,639.0867
52.3404,639.2387
52.3954,687.2634
52.4504,654.2483
52.5054,700.6636
52.5604,672.4848
52.6154,665.2286
52.6704,674.165
52.7254,667.5559
52.7804,671.8297
52.8354,649.0763
52.8904,696.0184
52.9454,704.3557
53.0004,770.4961
53.0554,702.8011
53.1104,706.399
53.1654,795.3603
53.2204,896.3637
53.2754,1188.85
53.3304,1422.03
53.3854,1279.865
53.4404,1168.44
53.4954,1036.66
53.5504,861.8191
53.6054,858.5539
53.6604,1016.63
53.7154,1359.32
53.7704,1823.14
53.8254,1208.938
53.8804,1246
53.9354,897.5359
53.9904,718.734
54.0454,713.0672
54.1004,633.8503
54.1554,678.3068
54.2104,680.8514
54.2654,660.3949
54.3204,664
54.3754,639.1782
54.4304,643.2586
54.4854,649
54.5404,662.8328
54.5954,644.3207
54.6504,674.5534
54.7054,636.9116
54.7604,633.4589
54.8154,650.5457
54.8704,637.9085
54.9254,622.9229
54.9804,626.5138
55.0354,648.3378
55.0904,652.0372
55.1454,672.2394
55.2004,630.4841
55.2554,686.5574
55.3104,705.2285
55.3654,748.7725
55.4204,741.6049
55.4754,765.0532
55.5304,836.1498
55.5854,968.323
55.6404,1139.51
55.6954,1333.63
55.7504,1185.45
55.8054,1137.11
55.8604,979.8725
55.9154,893.4017
55.9704,832.1015
56.0254,734.871
56.0804,677.9124
56.1354,721.6079
56.1904,676.0991
56.2454,655.8955
56.3004,639.7508
56.3554,673.4064
56.4104,637.1344
56.4654,645.0535
56.5204,652.7327
56.5754,583.6844
56.6304,617.46
56.6854,652.7641
56.7404,631.209
56.7954,637.587
56.8504,688.6586
56.9054,632.1064
56.9604,631.5486
57.0154,605.9158
57.0704,650.2946
57.1254,587.6638
57.1804,612.0637
57.2354,593.3684
57.2904,615.873
57.3454,638.5644
57.4004,626.7659
57.4554,580.1677
57.5104,610.6956
57.5654,601.2546
57.6204,630.4264
57.6754,627.4808
57.7304,617.8478
57.7854,601.189
57.8404,640.3913
57.8954,648.3294
57.9504,610.2701
58.0054,641.4473
58.0604,645.1338
58.1154,621.5636
58.1704,606.261
58.2254,652.2175
58.2804,615.5753
58.3354,631.36
58.3904,635.6873
58.4454,584.3185
58.5004,644.9665
58.5554,686.8355
58.6104,717.1815
58.6654,800.5924
58.7204,765.0168
58.7754,789.3212
58.8304,946.8076
58.8854,1411.96
58.9404,3314.5
58.9954,4862.04
59.0504,2197
59.1054,2693.76
59.1604,1841.49
59.2154,851.792
59.2704,785.6062
59.3254,688.1867
59.3804,759.8748
59.4354,688.7876
59.4904,697.9165
59.5454,697.3113
59.6004,688.6885
59.6554,622.0496
59.7104,628.7853
59.7654,620.6724
59.8204,577.3162
59.8754,604.3269
59.9304,596.9427
59.9854,585.6289
60.0404,581.0405
60.0954,582.2248
60.1504,597.6324
60.2054,642.5775
60.2604,551.9274
60.3154,581.1805
60.3704,608.7711
60.4254,602.1058
60.4804,579.4547
60.5354,623.8159
60.5904,575.5917
60.6454,555.1537
60.7004,575.0628
60.7554,620.8369
60.8104,581.179
60.8654,576.4151
60.9204,583.0528
60.9754,620.7633
61.0304,569.6232
61.0854,582.3806
61.1404,563.6739
61.1954,572.6886
61.2504,604.7265
61.3054,625.4354
61.3604,595.2242
61.4154,596.9556
61.4704,550.9043
61.5254,566.0319
61.5804,573.8455
61.6354,582.538
61.6904,584.3708
61.7454,571.2148
61.8004,570.5648
61.8554,542.7716
61.9104,581.4512
61.9654,572.3978
62.0204,575.1643
62.0754,573.8727
62.1304,595.6811
62.1854,523.7761
62.2404,576.562
62.2954,566.4732
62.3504,581.9701
62.4054,559.2831
62.4604,553
62.5154,558.2267
62.5704,572.2152
62.6254,545.1475
62.6804,561.3579
62.7354,563.9617
62.7904,558.3399
62.8454,588.5767
62.9004,546.3538
62.9554,549.5736
63.0104,535.3356
63.0654,569.7078
63.1204,585.3699
63.1754,575.3419
63.2304,578.0851
63.2854,570.2555
63.3404,587.4164
63.3954,563.9914
63.4504,601.9886
63.5054,623.4072
63.5604,604.3444
63.6154,578.5651
63.6704,588.4451
63.7254,559.0676
63.7804,598.0359
63.8354,629.3185
63.8904,554.8985
63.9454,572.1178
64.0004,569.2324
64.0554,615.953
64.1104,602.0624
64.1654,614.2348
64.2204,582.5932
64.2754,587.9223
64.3304,586.0656
64.3854,636.5314
64.4404,617.4554
64.4954,658.6237
64.5504,667.5903
64.6054,738.727
64.6604,1068.92
64.7154,1778.68
64.7704,1402.817
64.8254,1036.011
64.8804,1249.02
64.9354,942.794
64.9904,718.0987
65.0454,685.2829
65.1004,653.382
65.1554,687.1116
65.2104,749.7423
65.2654,952.3608
65.3204,879.8777
65.3754,738.4598
65.4304,735.4758
65.4854,729.0769
65.5404,624.2593
65.5954,596.9171
65.6504,596.0759
65.7054,639.9316
65.7604,569.8895
65.8154,627.9978
65.8704,639.6988
65.9254,676.9186
65.9804,680.4475
66.0354,709.6876
66.0904,713.9784
66.1454,791.3559
66.2004,858.3631
66.2554,941.8139
66.3104,1085.29
66.3654,1433.1
66.4204,1630.28
66.4754,1276.06
66.5304,1211.23
66.5854,1204.92
66.6404,1018.06
66.6954,919.1828
66.7504,826.1468
66.8054,754.1874
66.8604,746.5876
66.9154,670.8725
66.9704,649.6147
67.0254,607.1766
67.0804,586.3354
67.1354,588.6274
67.1904,580.6621
67.2454,578.2202
67.3004,559.2533
67.3554,549.6813
67.4104,570.5336
67.4654,562.4092
67.5204,577.3072
67.5754,618.012
67.6304,596.2708
67.6854,594.1858
67.7404,578.6729
67.7954,596.4634
67.8504,568.2386
67.9054,534.5861
67.9604,505.2185
68.0154,547.121
68.0704,546.2606
68.1254,558.076
68.1804,537.8611
68.2354,538.0876
68.2904,511.4201
68.3454,566.557
68.4004,518.9221
68.4554,547.899
68.5104,518.1494
68.5654,507.3296
68.6204,549.1548
68.6754,554.0415
68.7304,506.5371
68.7854,514.5106
68.8404,542.075
68.8954,546.804
68.9504,534.3822
69.0054,547.1176
69.0604,555.8467
69.1154,585.5002
69.1704,553.2079
69.2254,547.1021
69.2804,564.8376
69.3354,569.4859
69.3904,556.8812
69.4454,531.7139
69.5004,556.4533
69.5554,598.6695
69.6104,544
69.6654,594.2944
69.7204,615.812
69.7754,653.0919
69.8304,596.2338
69.8854,610.8112
69.9404,588.2379
69.9954,574.2122
70.0504,522.2795
70.1054,531.6314
70.1604,528.3647
70.2154,513.1801
70.2704,523.0722
70.3254,519.4425
70.3804,526.418
70.4354,534.1237
70.4904,548.7067
70.5454,617.1438
70.6004,593.0301
70.6554,588.5603
70.7104,639.7494
70.7654,682.9512
70.8204,841.3943
70.8754,1340.521
70.9304,2862.66
70.9854,4118.3
71.0404,1888.205
71.0954,1783.92
71.1504,2402.7
71.2054,1304.14
71.2604,732.3066
71.3154,642.9293
71.3704,579.6664
71.4254,590.4185
71.4804,525.8425
71.5354,561.3188
71.5904,532.7541
71.6454,539.7585
71.7004,523.5153
71.7554,548.8689
71.8104,508.4199
71.8654,511.072
71.9204,510.1726
71.9754,525.0264
72.0304,526.7364
72.0854,553.5635
72.1404,507.7188
72.1954,538.0961
72.2504,547.1126
72.3054,515.6912
72.3604,522.9313
72.4154,546.7828
72.4704,543.09
72.5254,528.4875
72.5804,536.0316
72.6354,529.1621
72.6904,561.4511
72.7454,532.7011
72.8004,579.3846
72.8554,584.8795
72.9104,647.4386
72.9654,644.7263
73.0204,735.0233
73.0754,757.2306
73.1304,666.0664
73.1854,635.9938
73.2404,631.1702
73.2954,601.0522
73.3504,546.6142
73.4054,578.4745
73.4604,547.6228
73.5154,541.4295
73.5704,523.0702
73.6254,519.2801
73.6804,524.7388
73.7354,558.1574
73.7904,546.0929
73.8454,527.2562
73.9004,537.5683
73.9554,547.7643
74.0104,542.5637
74.0654,540.791
74.1204,552.8532
74.1754,528.7081
74.2304,497.092
74.2854,491.5397
74.3404,512.1973
74.3954,525.4735
74.4504,474.848
74.5054,512.0548
74.5604,543.6264
74.6154,489.8266
74.6704,487.7622
74.7254,529.9637
74.7804,510.2122
74.8354,515
74.8904,529.0168
74.9454,548.4127
75.0004,510.2474
75.0554,521.667
75.1104,525.7143
75.1654,533.3106
75.2204,497.2369
75.2754,520.9644
75.3304,520.6391
75.3854,519.2487
75.4404,540.5904
75.4954,485.0762
75.5504,515.046
75.6054,603.8875
75.6604,628.2116
75.7154,519.8037
75.7704,580.3585
75.8254,593.398
75.8804,610.5646
75.9354,674.4844
75.9904,792.6931
76.0454,899.0535
76.1004,714.4746
76.1554,734.471
76.2104,831.7362
76.2654,869.5395
76.3204,816.2404
76.3754,669.0747
76.4304,619.6737
76.4854,659.8763
76.5404,631.2473
76.5954,521.4489
76.6504,541.5899
76.7054,504.3036
76.7604,509.6011
76.8154,526.9459
76.8704,517.8263
76.9254,543.2535
76.9804,505.2867
77.0354,510.4691
77.0904,500.2322
77.1454,559.3286
77.2004,512.1642
77.2554,465.7339
77.3104,458.3984
77.3654,500.175
77.4204,474.9816
77.4754,519.1583
77.5304,500.507
77.5854,531.9999
77.6404,491.2933
77.6954,490.0753
77.7504,523.8856
77.8054,505.1042
77.8604,494.9532
77.9154,519.9792
77.9704,481.9259
78.0254,461.6505
78.0804,480.5678
78.1354,533.1664
78.1904,582.1684
78.2454,580.9306
78.3004,530.1743
78.3554,545.0367
78.4104,577.0068
78.4654,557.902
78.5204,514.7809
78.5754,519.2515
78.6304,473.998
78.6854,520.8107
78.7404,574.0758
78.7954,565.4268
78.8504,522.8996
78.9054,502.2818
78.9604,539.5211
79.0154,519.6108
79.0704,523.081
79.1254,533.6725
79.1804,512.9286
79.2354,506.9017
79.2904,504.4616
79.3454,483.2939
79.4004,512.6636
79.4554,540.6576
79.5104,493.2201
79.5654,471.7163
79.6204,464.5712
79.6754,513.6805
79.7304,498.6816
79.7854,486.0422
79.8404,526.7976
79.8954,477.0855
79.9394,537.7268