File: RP-XRD-S2-2022/Sample_B.csv
Pos. [°2?],Intensity [Counts]
8.3359,4739.47
8.4019,4667.36
8.4679,4631.69
8.5339,4567.28
8.5999,4578.33
8.6659,4514.95
8.7319,4497.11
8.7979,4373.98
8.8639,4432.6
8.9299,4280.99
8.9959,4360.649
9.0619,4370.1
9.1279,4391.22
9.1939,4208.53
9.2599,4188
9.3259,4222.98
9.3919,4137.44
9.4579,4052.16
9.5239,4065.31
9.5899,4118.54
9.6559,4031.56
9.7219,4047.68
9.7879,3927.53
9.8539,3977.5
9.9199,4075.55
9.9859,4108.25
10.0519,4070.41
10.1179,4101.11
10.1839,4111.11
10.2499,4453.91
10.3159,4104.85
10.3819,3859.42
10.4479,3741.789
10.5139,3618.49
10.5799,3610.36
10.6459,3583.19
10.7119,3527.31
10.7779,3661.5
10.8439,3520.54
10.9099,3512.9
10.9759,3466.55
11.0419,3447.115
11.1079,3516.37
11.1739,3400.27
11.2399,3378.33
11.3059,3326.86
11.3719,3343.89
11.4379,3243.91
11.5039,3286.14
11.5699,3194.45
11.6359,3273.48
11.7019,3217.99
11.7679,3180.63
11.8339,3147.646
11.8999,3140.86
11.9659,3220.09
12.0319,3169.466
12.0979,3238.75
12.1639,3261.07
12.2299,3213.37
12.2959,3148.08
12.3619,3160.47
12.4279,3146.12
12.4939,3130.73
12.5599,3158.78
12.6259,3106.23
12.6919,3115.69
12.7579,3107.72
12.8239,3105.3
12.8899,3155.823
12.9559,3178.13
13.0219,3249.4
13.0879,3090.37
13.1539,3194.5
13.2199,3101.82
13.2859,3230.4
13.3519,3264.38
13.4179,3292.51
13.4839,3368.29
13.5499,3442.67
13.6159,3280.83
13.6819,3407.69
13.7479,3539.7
13.8139,3558.879
13.8799,3815.717
13.9459,3933.63
14.0119,4204.83
14.0779,4583.98
14.1439,4988.42
14.2099,5593.24
14.2759,6201.43
14.3419,6384.2
14.4079,5590.98
14.4739,4638.08
14.5399,3883.44
14.6059,3608.34
14.6719,3245.58
14.7379,3072.115
14.8039,3039.86
14.8699,2822.39
14.9359,2827.7
15.0019,2735.24
15.0679,2722.57
15.1339,2647.21
15.1999,2641.97
15.2659,2692.87
15.3319,2739.06
15.3979,2510.62
15.4639,2595.79
15.5299,2543.82
15.5959,2563.85
15.6619,2580.12
15.7279,2513.72
15.7939,2586.49
15.8599,2619.92
15.9259,2523.41
15.9919,2552.78
16.0579,2691.646
16.1239,2903.99
16.1899,2529.15
16.2559,2466.32
16.3219,2393.67
16.3879,2443.66
16.4539,2378.15
16.5199,2347.24
16.5859,2343.05
16.6519,2331.2
16.7179,2438.47
16.7839,2347.02
16.8499,2408.292
16.9159,2347.54
16.9819,2372.77
17.0479,2386.75
17.1139,2347.11
17.1799,2299.36
17.2459,2291.72
17.3119,2318.733
17.3779,2232.27
17.4439,2294.28
17.5099,2291.81
17.5759,2327.02
17.6419,2280.24
17.7079,2248.99
17.7739,2195.74
17.8399,2272.51
17.9059,2227.01
17.9719,2179.22
18.0379,2160.8
18.1039,2093.16
18.1699,2284.86
18.2359,2188.78
18.3019,2191.45
18.3679,2158.58
18.4339,2189.32
18.4999,2153.34
18.5659,2245.95
18.6319,2140.02
18.6979,2176
18.7639,2158.37
18.8299,2202.15
18.8959,2176.82
18.9619,2150.48
19.0279,2162.94
19.0939,2216.51
19.1599,2179.27
19.2259,2208.94
19.2919,2235.506
19.3579,2135.469
19.4239,2172.78
19.4899,2198.35
19.5559,2202.69
19.6219,2127.96
19.6879,2132.47
19.7539,2169.85
19.8199,2142.31
19.8859,2141.944
19.9519,2213.64
20.0179,2169.04
20.0839,2164.66
20.1499,2194.351
20.2159,2139.79
20.2819,2165.61
20.3479,2129.88
20.4139,2216.28
20.4799,2285.81
20.5459,2236.26
20.6119,2346.19
20.6779,2298.112
20.7439,2210.87
20.8099,2174.301
20.8759,2162.09
20.9419,2193.09
21.0079,2234.01
21.0739,2149.45
21.1399,2213.37
21.2059,2187.02
21.2719,2186.69
21.3379,2118.35
21.4039,2168.16
21.4699,2155.118
21.5359,2165.08
21.6019,2148.73
21.6679,2119.46
21.7339,2122.51
21.7999,2237.2
21.8659,2210.72
21.9319,2279.79
21.9979,2235.3
22.0639,2296.87
22.1299,2226.76
22.1959,2248.69
22.2619,2245.55
22.3279,2402.79
22.3939,2464.34
22.4599,2489.05
22.5259,2584.81
22.5919,2640.15
22.6579,2787.04
22.7239,3045.16
22.7899,3222.92
22.8559,3419.83
22.9219,3909.17
22.9879,4372.31
23.0539,4862.92
23.1199,5252.22
23.1859,5044.97
23.2519,4709.24
23.3179,4506.06
23.3839,4446.65
23.4499,4357.48
23.5159,4324.25
23.5819,4320.31
23.6479,4279.15
23.7139,4366.96
23.7799,4248.7
23.8459,4207.74
23.9119,4047.11
23.9779,4273.15
24.0439,4401.73
24.1099,4999.96
24.1759,7199.67
24.2419,11497.582
24.3079,8438.49
24.3739,4913.17
24.4399,4729.81
24.5059,4340.6
24.5719,3801.47
24.6379,3685.27
24.7039,3621.8
24.7699,3507.93
24.8359,3417.69
24.9019,3416.91
24.9679,3497.1
25.0339,3398.61
25.0999,3382.05
25.1659,3355.11
25.2319,3323.11
25.2979,3193.54
25.3639,3279.81
25.4299,3258.14
25.4959,3367.143
25.5619,3688.64
25.6279,4015.17
25.6939,3552.67
25.7599,3201.51
25.8259,3132.91
25.8919,3206.26
25.9579,3172.95
26.0239,3114.97
26.0899,3035.89
26.1559,3102
26.2219,3063.94
26.2879,3013.11
26.3539,2882.02
26.4199,2939.24
26.4859,2891.48
26.5519,2890.748
26.6179,2972.25
26.6839,2987.99
26.7499,3081.05
26.8159,2964.78
26.8819,2890.5
26.9479,3023.23
27.0139,3185.51
27.0799,3056.134
27.1459,2847.69
27.2119,2818.35
27.2779,2866.655
27.3439,3161.65
27.4099,3278.74
27.4759,3093.74
27.5419,2973.91
27.6079,2832.79
27.6739,2888.54
27.7399,2925.18
27.8059,2882
27.8719,2983.91
27.9379,3044.27
28.0039,3031.08
28.0699,3219.01
28.1359,3213.62
28.2019,3311.89
28.2679,3368
28.3339,3173.69
28.3999,3054.39
28.4659,3038.36
28.5319,3171.28
28.5979,3111.27
28.6639,3394.53
28.7299,3539.65
28.7959,4001.27
28.8619,4615.79
28.9279,5207.26
28.9939,5197.8
29.0599,4642.78
29.1259,4080.19
29.1919,3751.97
29.2579,3486.9
29.3239,3560.75
29.3899,3619.6
29.4559,3475.72
29.5219,3461.98
29.5879,3421.1
29.6539,3388.68
29.7199,3329.27
29.7859,3328.15
29.8519,3193.17
29.9179,2937.47
29.9839,2756.92
30.0499,2753.14
30.1159,2657.177
30.1819,2680.53
30.2479,2663.11
30.3139,2754.646
30.3799,2791.2
30.4459,2836.319
30.5119,2969.15
30.5779,3058.58
30.6439,3168.9
30.7099,3678.576
30.7759,4538.2
30.8419,5544.6
30.9079,9443.4
30.9739,22490.3
31.0399,31648.8
31.1059,15254.7
31.1719,4478.88
31.2379,3569.04
31.3039,3259.49
31.3699,3093.82
31.4359,3104.34
31.5019,3233.37
31.5679,2959.32
31.6339,2788.71
31.6999,2658.75
31.7659,2698.289
31.8319,3022.82
31.8979,3899.2
31.9639,5554.855
32.0299,5174.83
32.0959,3592.92
32.1619,2815.3
32.2279,3098.64
32.2939,4254.86
32.3599,3982.34
32.4259,3597.09
32.4919,4587.69
32.5579,7400.24
32.6239,5803.4
32.6899,3768.64
32.7559,2921.54
32.8219,2651.45
32.8879,2586.35
32.9539,2482.369
33.0199,2327.07
33.0859,2254.95
33.1519,2181.63
33.2179,2220.236
33.2839,2187.53
33.3499,2101.63
33.4159,2092.53
33.4819,2067.69
33.5479,2007.05
33.6139,1999.67
33.6799,1973.67
33.7459,1933.976
33.8119,2032.9
33.8779,2044.75
33.9439,2064.851
34.0099,2026.79
34.0759,2034.79
34.1419,1974.12
34.2079,1942.06
34.2739,2008.5
34.3399,2043.78
34.4059,1982.49
34.4719,2051.47
34.5379,2011.34
34.6039,2053.7
34.6699,2029.73
34.7359,2108.96
34.8019,2128.85
34.8679,2051.96
34.9339,2093.8
34.9999,1989.3
35.0659,2068.42
35.1319,2135.118
35.1979,2154.65
35.2639,2047.33
35.3299,2024.21
35.3959,2011.06
35.4619,2087.01
35.5279,2209.73
35.5939,2083.27
35.6599,1937.92
35.7259,1789.12
35.7919,1874.05
35.8579,1969.88
35.9239,2038.43
35.9899,2080.68
36.0559,1827.39
36.1219,1810.96
36.1879,1665.28
36.2539,1837.84
36.3199,1830.255
36.3859,1954.09
36.4519,1928.34
36.5179,1892.79
36.5839,1875.77
36.6499,1801.32
36.7159,1768.183
36.7819,1745.83
36.8479,1848.95
36.9139,1883.68
36.9799,2082.92
37.0459,1935.99
37.1119,1799.25
37.1779,1731.32
37.2439,1659.37
37.3099,1678.33
37.3759,1730.61
37.4419,1650.97
37.5079,1715.79
37.5739,1619.97
37.6399,1641.91
37.7059,1627.37
37.7719,1612.84
37.8379,1708.45
37.9039,1630.76
37.9699,1590.81
38.0359,1597.1
38.1019,1584.91
38.1679,1554.28
38.2339,1551.1
38.2999,1627.7
38.3659,1597.12
38.4319,1613.57
38.4979,1649.75
38.5639,1626.35
38.6299,1551.61
38.6959,1548.01
38.7619,1534.51
38.8279,1529.29
38.8939,1573.14
38.9599,1624.7
39.0259,1542.19
39.0919,1503.09
39.1579,1523.34
39.2239,1509.624
39.2899,1556.65
39.3559,1617.36
39.4219,1528.28
39.4879,1587.97
39.5539,1655.13
39.6199,1677.646
39.6859,1626.944
39.7519,1690.37
39.8179,1717.34
39.8839,1714.96
39.9499,1870.11
40.0159,1760.18
40.0819,1781.09
40.1479,1892.61
40.2139,1925.69
40.2799,2016.77
40.3459,2062.953
40.4119,2098.5
40.4779,2280.55
40.5439,2262.91
40.6099,2395.24
40.6759,2663.65
40.7419,2944.27
40.8079,3039.19
40.8739,3011.96
40.9399,2798.46
41.0059,2702.58
41.0719,2539.33
41.1379,2430.49
41.2039,2403.92
41.2699,2497.53
41.3359,2494.84
41.4019,2432.97
41.4679,2352.35
41.5339,2345.03
41.5999,2300.85
41.6659,2266.1
41.7319,2298.73
41.7979,2324.65
41.8639,2515.587
41.9299,2451.15
41.9959,2533.19
42.0619,2504.79
42.1279,2387.85
42.1939,2194.34
42.2599,2179.12
42.3259,2108.46
42.3919,2121.77
42.4579,2141.578
42.5239,2206.94
42.5899,2546.04
42.6559,3556.79
42.7219,3908.94
42.7879,3232.84
42.8539,2313.34
42.9199,2050.31
42.9859,2134.4
43.0519,2070.43
43.1179,2120.94
43.1839,2013.71
43.2499,2103.59
43.3159,2129.99
43.3819,1946.88
43.4479,1907.87
43.5139,1913.75
43.5799,1976.01
43.6459,2059.84
43.7119,2055.73
43.7779,2043.55
43.8439,1993.78
43.9099,2089.68
43.9759,2169.73
44.0419,2208.87
44.1079,2281.82
44.1739,2213.938
44.2399,2120.27
44.3059,2049.501
44.3719,2178.88
44.4379,2144.124
44.5039,2055.98
44.5699,2131.35
44.6359,2245.775
44.7019,2278.48
44.7679,2358.4
44.8339,2595.49
44.8999,2588.825
44.9659,2605.88
45.0319,2453.12
45.0979,2460.88
45.1639,2285.14
45.2299,2132.43
45.2959,2036.32
45.3619,1990.81
45.4279,1971.95
45.4939,1990.69
45.5599,1970.54
45.6259,1914.89
45.6919,1964.68
45.7579,2033.45
45.8239,2025.04
45.8899,1966.25
45.9559,2002.83
46.0219,2064.55
46.0879,2697.55
46.1539,3793.14
46.2199,2742.1
46.2859,2384.863
46.3519,1734.89
46.4179,1598.18
46.4839,1646.56
46.5499,1626.31
46.6159,1609.5
46.6819,1608.832
46.7479,1559.031
46.8139,1648.224
46.8799,1584.11
46.9459,1650
47.0119,1676.02
47.0779,2011.54
47.1439,2714.09
47.2099,2058.61
47.2759,1875.47
47.3419,1562.4
47.4079,1520.94
47.4739,1479.08
47.5399,1469.93
47.6059,1525.87
47.6719,1545.89
47.7379,1513.08
47.8039,1530.67
47.8699,1539.46
47.9359,1565.102
48.0019,1571.33
48.0679,1546.87
48.1339,1508.88
48.1999,1551.27
48.2659,1604.69
48.3319,1522.88
48.3979,1462.09
48.4639,1443.848
48.5299,1488
48.5959,1491.27
48.6619,1508.64
48.7279,1545.82
48.7939,1557.41
48.8599,1611.07
48.9259,1678.21
48.9919,1627.198
49.0579,1583.69
49.1239,1476.69
49.1899,1500.846
49.2559,1461.08
49.3219,1486.55
49.3879,1473.09
49.4539,1515.68
49.5199,1502.68
49.5859,1826.91
49.6519,2551.28
49.7179,3289.3
49.7839,2605.33
49.8499,2125.194
49.9159,1653.69
49.9819,1505.873
50.0479,1432.11
50.1139,1522.7
50.1799,1457.85
50.2459,1384.95
50.3119,1358.03
50.3779,1240.08
50.4439,1312.13
50.5099,1323.345
50.5759,1305.3
50.6419,1373.9
50.7079,1347.15
50.7739,1312.953
50.8399,1282.664
50.9059,1320.37
50.9719,1377.23
51.0379,1345.97
51.1039,1330.44
51.1699,1362.08
51.2359,1343.72
51.3019,1253.58
51.3679,1313.578
51.4339,1281.13
51.4999,1323.63
51.5659,1344.469
51.6319,1278.25
51.6979,1277.07
51.7639,1311.17
51.8299,1330.81
51.8959,1252.91
51.9619,1259.64
52.0279,1263.02
52.0939,1200.76
52.1599,1316.34
52.2259,1284
52.2919,1293.788
52.3579,1286.34
52.4239,1298.02
52.4899,1369.3
52.5559,1292.99
52.6219,1299.88
52.6879,1331.58
52.7539,1330.56
52.8199,1419.12
52.8859,1399.239
52.9519,1467.177
53.0179,1452.46
53.0839,1523.31
53.1499,1564.94
53.2159,1703.056
53.2819,1825.88
53.3479,1774.11
53.4139,1734.87
53.4799,1641
53.5459,1695.6
53.6119,1773.82
53.6779,2337.2
53.7439,2096.32
53.8099,1965.9
53.8759,1726.16
53.9419,1408.85
54.0079,1362.94
54.0739,1342.239
54.1399,1380.416
54.2059,1363.45
54.2719,1336.35
54.3379,1327.72
54.4039,1320.76
54.4699,1332.01
54.5359,1327.42
54.6019,1269.75
54.6679,1299.15
54.7339,1343.98
54.7999,1271.15
54.8659,1262.7
54.9319,1323.97
54.9979,1340.09
55.0639,1306.09
55.1299,1265.63
55.1959,1325.93
55.2619,1401.3
55.3279,1314.668
55.3939,1269.61
55.4599,1314.54
55.5259,1246.71
55.5919,1305.16
55.6579,1292.12
55.7239,1240.46
55.7899,1202.307
55.8559,1251.39
55.9219,1288.29
55.9879,1258.833
56.0539,1247.57
56.1199,1285.33
56.1859,1306.2
56.2519,1311.86
56.3179,1368.693
56.3839,1348.15
56.4499,1316.38
56.5159,1349.62
56.5819,1272.89
56.6479,1264.15
56.7139,1272.04
56.7799,1200.14
56.8459,1202.87
56.9119,1190.81
56.9779,1182.01
57.0439,1140.28
57.1099,1168.97
57.1759,1186.37
57.2419,1168.88
57.3079,1193.17
57.3739,1183
57.4399,1225.47
57.5059,1250.24
57.5719,1270.75
57.6379,1254.92
57.7039,1182.66
57.7699,1284.33
57.8359,1299.08
57.9019,1199.52
57.9679,1272.907
58.0339,1175.78
58.0999,1192.06
58.1659,1164.29
58.2319,1158.86
58.2979,1172.03
58.3639,1230.59
58.4299,1229.99
58.4959,1209.6
58.5619,1292.72
58.6279,1381.26
58.6939,1354.01
58.7599,1519.4
58.8259,2043.05
58.8919,4210.079
58.9579,5500.46
59.0239,3027.78
59.0899,3561.359
59.1559,1483.14
59.2219,1229.77
59.2879,1238.11
59.3539,1349.24
59.4199,1357.77
59.4859,1345.16
59.5519,1351.69
59.6179,1359.36
59.6839,1257.66
59.7499,1258.55
59.8159,1185.44
59.8819,1234.68
59.9479,1243.54
60.0139,1230.55
60.0799,1260.79
60.1459,1292.48
60.2119,1201.84
60.2779,1222.96
60.3439,1160.79
60.4099,1155.09
60.4759,1068.8
60.5419,1028.95
60.6079,1060.36
60.6739,1075.74
60.7399,1083.04
60.8059,1068.62
60.8719,1041.16
60.9379,1049.14
61.0039,1033.28
61.0699,1015.69
61.1359,1058.02
61.2019,1026.71
61.2679,1055.17
61.3339,1070.69
61.3999,1116.053
61.4659,1050.17
61.5319,1072.29
61.5979,1081.2
61.6639,1048.23
61.7299,1030.9
61.7959,1097.42
61.8619,1125.96
61.9279,1096.209
61.9939,1068.19
62.0599,1114.584
62.1259,1042.56
62.1919,1107.33
62.2579,1124.95
62.3239,1116.93
62.3899,1088.699
62.4559,1127.72
62.5219,1138.65
62.5879,1156.16
62.6539,1158.42
62.7199,1135.1
62.7859,1150.06
62.8519,1130
62.9179,1049.57
62.9839,1134.89
63.0499,1136.484
63.1159,1111.43
63.1819,1179.336
63.2479,1163.813
63.3139,1173.35
63.3799,1208.1
63.4459,1232.33
63.5119,1240.37
63.5779,1249.82
63.6439,1280.84
63.7099,1310.62
63.7759,1301.77
63.8419,1336.93
63.9079,1344.342
63.9739,1337.79
64.0399,1472.94
64.1059,1428.45
64.1719,1475.4
64.2379,1396.76
64.3039,1385.44
64.3699,1477.5
64.4359,1438.21
64.5019,1464.69
64.5679,1657.05
64.6339,1985.72
64.6999,2132.94
64.7659,1901.83
64.8319,1885.82
64.8979,1740.68
64.9639,1574.54
65.0299,1663.3
65.0959,1672.09
65.1619,1752.43
65.2279,1921.62
65.2939,1693.78
65.3599,1650.12
65.4259,1590.47
65.4919,1443.9
65.5579,1368.42
65.6239,1392.3
65.6899,1416.65
65.7559,1314.37
65.8219,1341.34
65.8879,1311.6
65.9539,1349.28
66.0199,1337.11
66.0859,1232.66
66.1519,1292.71
66.2179,1296.06
66.2839,1337.43
66.3499,1284.27
66.4159,1344.44
66.4819,1280.2
66.5479,1275.45
66.6139,1253.413
66.6799,1262.3
66.7459,1313.13
66.8119,1254.9
66.8779,1253.54
66.9439,1314.46
67.0099,1263.66
67.0759,1225.44
67.1419,1183.52
67.2079,1163.51
67.2739,1141.39
67.3399,1162.26
67.4059,1160.19
67.4719,1108.41
67.5379,1195.14
67.6039,1183.72
67.6699,1195.32
67.7359,1147.89
67.8019,1132.9
67.8679,1170.45
67.9339,1154.94
67.9999,1083.35
68.0659,1089.4
68.1319,1102.41
68.1979,1211.06
68.2639,1092.05
68.3299,1120.602
68.3959,1110.72
68.4619,1078.09
68.5279,1106.08
68.5939,1104.93
68.6599,1150.739
68.7259,1113.14
68.7919,1103.28
68.8579,1095.37
68.9239,1093.54
68.9899,1088.32
69.0559,1124.74
69.1219,1103.531
69.1879,1073.66
69.2539,1111.69
69.3199,1090.25
69.3859,1145.77
69.4519,1101.34
69.5179,1069.92
69.5839,1058.35
69.6499,1050.97
69.7159,1057.36
69.7819,1079.56
69.8479,1056.51
69.9139,1033.44
69.9799,1062.45
70.0459,1086.51
70.1119,1087.12
70.1779,1028.49
70.2439,1064.59
70.3099,1088.83
70.3759,1091.39
70.4419,1082.52
70.5079,1123.23
70.5739,1143.23
70.6399,1144.62
70.7059,1268.99
70.7719,1432.77
70.8379,1951.96
70.9039,3245.502
70.9699,2476.27
71.0359,1984.2
71.1019,2257.505
71.1679,1442.08
71.2339,1217.78
71.2999,1136.7
71.3659,1180.23
71.4319,1110.48
71.4979,1123.59
71.5639,1105.62
71.6299,1104.41
71.6959,1069.84
71.7619,1089.5
71.8279,1109.87
71.8939,1145.34
71.9599,1123.02
72.0259,1092.814
72.0919,1136.46
72.1579,1098.37
72.2239,1129.14
72.2899,1157.89
72.3559,1197.43
72.4219,1203.24
72.4879,1158.7
72.5539,1174.13
72.6199,1210.49
72.6859,1260.14
72.7519,1229.285
72.8179,1256.63
72.8839,1293.55
72.9499,1331.02
73.0159,1288.52
73.0819,1354.12
73.1479,1347.1
73.2139,1390.26
73.2799,1378.96
73.3459,1473.63
73.4119,1457.37
73.4779,1571.28
73.5439,1561.3
73.6099,1648.35
73.6759,1769.07
73.7419,1732.57
73.8079,1838.47
73.8739,1780.01
73.9399,1672.39
74.0059,1621.64
74.0719,1485.22
74.1379,1402.84
74.2039,1338.05
74.2699,1350.11
74.3359,1300.09
74.4019,1260.103
74.4679,1204.283
74.5339,1190.24
74.5999,1215.47
74.6659,1185.94
74.7319,1174.66
74.7979,1176.38
74.8639,1174.01
74.9299,1174.47
74.9959,1136.16
75.0619,1163.68
75.1279,1192.59
75.1939,1139.86
75.2599,1175.14
75.3259,1210.53
75.3919,1180.25
75.4579,1146.08
75.5239,1159.32
75.5899,1164.894
75.6559,1175.45
75.7219,1261.04
75.7879,1232.57
75.8539,1325.49
75.9199,1380.262
75.9859,1582.96
76.0519,1375.43
76.1179,1275.33
76.1839,1300.65
76.2499,1173.92
76.3159,1091.95
76.3819,1033.68
76.4479,1012.31
76.5139,1050.51
76.5799,1022.196
76.6459,945.3536
76.7119,967.3583
76.7779,989.4216
76.8439,973.982
76.9099,1040.98
76.9759,1084.32
77.0419,1005.99
77.1079,1027.12
77.1739,1009.08
77.2399,1022.49
77.3059,1033.61
77.3719,1051.953
77.4379,1102.89
77.5039,1059.562
77.5699,1063.93
77.6359,1145.2
77.7019,1056.16
77.7679,1044.63
77.8339,1068.79
77.8999,991.5486
77.9659,1001.69
78.0319,986.27
78.0979,1034.62
78.1639,1081.94
78.2299,995.4688
78.2959,1001.18
78.3619,986.3332
78.4279,1027.23
78.4939,1001.24
78.5599,946.131
78.6259,1019.61
78.6919,998.022
78.7579,1002.79
78.8239,1036.72
78.8899,1014.457
78.9559,1026.97
79.0219,1036.84
79.0879,1019.29
79.1539,1003.87
79.2199,949.7523
79.2859,1005.11
79.3519,957.0326
79.4179,993.2035
79.4839,980.0342
79.5499,941.0743
79.6159,971.6245
79.6819,985.2744
79.7479,1006.06