File: RP-XRD-S2-2022/Sample_3_G4.csv
Angle,Counts
5.9644,2362.4
6.0194,2349.77
6.0744,2271.54
6.1294,2216.3
6.1844,2202.5
6.2394,2158.38
6.2944,2221.6
6.3494,2177.37
6.4044,2161.71
6.4594,2128.87
6.5144,2125.64
6.5694,2069.28
6.6244,2091.98
6.6794,2047.1
6.7344,2079.33
6.7894,2110.34
6.8444,2064.058
6.8994,2106.1
6.9544,2093.49
7.0094,2100.14
7.0644,2074.65
7.1194,2089.48
7.1744,2052.72
7.2294,2094.13
7.2844,2158.4
7.3394,1997.85
7.3944,1992.7
7.4494,2005.51
7.5044,2071.89
7.5594,1996.6
7.6144,2023.75
7.6694,2030.9
7.7244,2007.46
7.7794,2015.98
7.8344,2012.87
7.8894,2024.57
7.9444,1953.35
7.9994,2078.34
8.0544,1977.792
8.1094,2003.17
8.1644,1991.77
8.2194,1990.75
8.2744,1995.06
8.3294,1995.06
8.3844,2065.761
8.4394,1942.32
8.4944,2029.063
8.5494,1921.5
8.6044,2030.62
8.6594,1988.72
8.7144,2019.66
8.7694,1963.87
8.8244,1984.63
8.8794,1928.06
8.9344,1997.74
8.9894,2000.67
9.0444,2013.416
9.0994,2000.99
9.1544,2021.24
9.2094,2100.71
9.2644,1949.968
9.3194,1984.13
9.3744,1937.11
9.4294,1921.59
9.4844,2000.51
9.5394,2032.08
9.5944,1966.93
9.6494,1962.21
9.7044,1961.41
9.7594,1971.13
9.8144,1901.94
9.8694,1967.22
9.9244,2016.19
9.9794,1943.26
10.0344,1953.21
10.0894,1985.26
10.1444,2020.32
10.1994,1957.03
10.2544,1976.79
10.3094,2003.74
10.3644,2030.55
10.4194,1906.31
10.4744,1900.05
10.5294,1969.96
10.5844,1930.79
10.6394,1937.06
10.6944,1921.84
10.7494,1884.56
10.8044,1922.44
10.8594,1924.22
10.9144,1872.6
10.9694,1905.24
11.0244,1920.57
11.0794,1913.44
11.1344,1821.5
11.1894,1862.16
11.2444,1942.64
11.2994,1889.86
11.3544,1832.4
11.4094,1864.91
11.4644,1763.33
11.5194,1865.3
11.5744,1836.54
11.6294,1821.642
11.6844,1794.58
11.7394,1921.96
11.7944,1892.38
11.8494,1840.22
11.9044,1811.87
11.9594,1856.69
12.0144,1815.45
12.0694,1841.24
12.1244,1835.05
12.1794,1806.236
12.2344,1817.38
12.2894,1812.95
12.3444,1794.27
12.3994,1755.43
12.4544,1727.29
12.5094,1826.71
12.5644,1751.56
12.6194,1790.38
12.6744,1756.35
12.7294,1702.14
12.7844,1771.31
12.8394,1821.93
12.8944,1801.35
12.9494,1683.89
13.0044,1795.51
13.0594,1776.81
13.1144,1739.8
13.1694,1745.42
13.2244,1711.63
13.2794,1740.476
13.3344,1734.69
13.3894,1816.32
13.4444,1729.13
13.4994,1685.52
13.5544,1716.37
13.6094,1752.24
13.6644,1724.56
13.7194,1770.11
13.7744,1699.4
13.8294,1784.62
13.8844,1817.792
13.9394,1737.3
13.9944,1772.332
14.0494,1787.13
14.1044,1858.97
14.1594,1861.7
14.2144,1852.07
14.2694,1953.11
14.3244,1864.82
14.3794,1862.72
14.4344,1941.72
14.4894,1808.76
14.5444,1832.52
14.5994,1769.754
14.6544,1702.7
14.7094,1731.64
14.7644,1623.64
14.8194,1605.37
14.8744,1570.25
14.9294,1599.32
14.9844,1562.66
15.0394,1508.73
15.0944,1536.18
15.1494,1581.31
15.2044,1543.31
15.2594,1539.535
15.3144,1567.6
15.3694,1500.41
15.4244,1474.39
15.4794,1470.42
15.5344,1574.97
15.5894,1485.29
15.6444,1492.04
15.6994,1537.78
15.7544,1472.736
15.8094,1546.07
15.8644,1533.42
15.9194,1484.13
15.9744,1484.35
16.0294,1489.71
16.0844,1490.68
16.1394,1514.27
16.1944,1402.1
16.2494,1414.17
16.3044,1451.68
16.3594,1533.21
16.4144,1448.757
16.4694,1439.09
16.5244,1347.56
16.5794,1403.04
16.6344,1420.51
16.6894,1460.13
16.7444,1427.98
16.7994,1395.06
16.8544,1403.818
16.9094,1420.58
16.9644,1411.52
17.0194,1389.21
17.0744,1337.225
17.1294,1395.74
17.1844,1365.06
17.2394,1391.47
17.2944,1384.42
17.3494,1339.49
17.4044,1408.57
17.4594,1361.646
17.5144,1378.2
17.5694,1337.052
17.6244,1325.164
17.6794,1384.85
17.7344,1312.38
17.7894,1377.58
17.8444,1369.517
17.8994,1308.19
17.9544,1296.38
18.0094,1354.54
18.0644,1323.02
18.1194,1323.85
18.1744,1276.58
18.2294,1310.2
18.2844,1376.134
18.3394,1367.51
18.3944,1371.56
18.4494,1295.27
18.5044,1316.09
18.5594,1345.409
18.6144,1268.99
18.6694,1323.39
18.7244,1303.32
18.7794,1307.227
18.8344,1376.15
18.8894,1317.01
18.9444,1351.85
18.9994,1327.43
19.0544,1322.9
19.1094,1295.289
19.1644,1335.33
19.2194,1288.224
19.2744,1254.07
19.3294,1298.927
19.3844,1294.51
19.4394,1229.05
19.4944,1305.64
19.5494,1285.89
19.6044,1283.112
19.6594,1262.61
19.7144,1334.062
19.7694,1294.667
19.8244,1239.2
19.8794,1278.25
19.9344,1284.1
19.9894,1255.36
20.0444,1309.757
20.0994,1219.11
20.1544,1255.12
20.2094,1279.28
20.2644,1242.22
20.3194,1300.89
20.3744,1297.86
20.4294,1268.89
20.4844,1322.27
20.5394,1233.52
20.5944,1272.98
20.6494,1300.22
20.7044,1375.22
20.7594,1279.78
20.8144,1223.458
20.8694,1297.74
20.9244,1348.389
20.9794,1284.84
21.0344,1317.36
21.0894,1341.761
21.1444,1347.56
21.1994,1330.78
21.2544,1308.472
21.3094,1362.62
21.3644,1350.25
21.4194,1281.363
21.4744,1288.99
21.5294,1307.09
21.5844,1213.11
21.6394,1243.053
21.6944,1330.185
21.7494,1220.91
21.8044,1288.83
21.8594,1275.54
21.9144,1293.93
21.9694,1339.55
22.0244,1321.49
22.0794,1311.26
22.1344,1296.09
22.1894,1221.19
22.2444,1255.09
22.2994,1255.51
22.3544,1255.7
22.4094,1284.248
22.4644,1230.46
22.5194,1312.06
22.5744,1230.16
22.6294,1216.2
22.6844,1355.47
22.7394,1276.6
22.7944,1265.46
22.8494,1316.33
22.9044,1358.09
22.9594,1372.93
23.0144,1439.4
23.0694,1484.4
23.1244,1513.92
23.1794,1553.55
23.2344,1558.85
23.2894,1537.62
23.3444,1488.049
23.3994,1480.14
23.4544,1520.623
23.5094,1439.04
23.5644,1493.64
23.6194,1522.86
23.6744,1486.74
23.7294,1564.15
23.7844,1590.5
23.8394,1558.57
23.8944,1530.08
23.9494,1578.826
24.0044,1653.18
24.0594,1873.38
24.1144,2496
24.1694,3684.64
24.2244,6743.55
24.2794,13475.1
24.3344,10689.852
24.3894,3930.17
24.4444,1913.13
24.4994,1748.87
24.5544,1652.37
24.6094,1567.95
24.6644,1575.48
24.7194,1544.19
24.7744,1413.02
24.8294,1452.26
24.8844,1391.69
24.9394,1406.56
24.9944,1398.63
25.0494,1353.56
25.1044,1350.29
25.1594,1365.8
25.2144,1329.16
25.2694,1298
25.3244,1324.64
25.3794,1408
25.4344,1342.36
25.4894,1294.51
25.5444,1332.21
25.5994,1441.1
25.6544,1415.44
25.7094,1350.42
25.7644,1370.47
25.8194,1255.74
25.8744,1326.32
25.9294,1331.75
25.9844,1340.69
26.0394,1357.248
26.0944,1282.772
26.1494,1230.86
26.2044,1195
26.2594,1257.98
26.3144,1249.33
26.3694,1288.51
26.4244,1289.497
26.4794,1199.27
26.5344,1212.31
26.5894,1254.19
26.6444,1260.11
26.6994,1224.33
26.7544,1308.32
26.8094,1296.37
26.8644,1278.991
26.9194,1268.48
26.9744,1227.78
27.0294,1241.32
27.0844,1284.98
27.1394,1215.2
27.1944,1235.61
27.2494,1275.23
27.3044,1237.53
27.3594,1256.5
27.4144,1288.44
27.4694,1248.37
27.5244,1216.16
27.5794,1239.63
27.6344,1198.795
27.6894,1196.2
27.7444,1203.44
27.7994,1243.94
27.8544,1228.48
27.9094,1281.1
27.9644,1244.8
28.0194,1377.64
28.0744,1561.53
28.1294,1537.89
28.1844,1286.624
28.2394,1232.48
28.2944,1328.63
28.3494,1261.88
28.4044,1201.9
28.4594,1283.117
28.5144,1189.75
28.5694,1172.39
28.6244,1229.72
28.6794,1274.94
28.7344,1269.72
28.7894,1251.64
28.8444,1277.08
28.8994,1311.064
28.9544,1298.39
29.0094,1308.3
29.0644,1287.3
29.1194,1281.34
29.1744,1324.655
29.2294,1280.3
29.2844,1300.8
29.3394,1295.56
29.3944,1263.41
29.4494,1294.674
29.5044,1223.01
29.5594,1323.542
29.6144,1256.93
29.6694,1244.49
29.7244,1234.08
29.7794,1279.51
29.8344,1188.64
29.8894,1264.93
29.9444,1180.8
29.9994,1170.649
30.0544,1120.71
30.1094,1159.836
30.1644,1176.92
30.2194,1141.52
30.2744,1287.79
30.3294,1296.32
30.3844,1310.7
30.4394,1378.96
30.4944,1509.88
30.5494,1601.11
30.6044,1810.647
30.6594,1960.6
30.7144,2053.43
30.7694,2442.53
30.8244,3108.02
30.8794,4971.48
30.9344,9585.42
30.9894,21697.862
31.0444,57334.6
31.0994,71857.3
31.1544,40594.343
31.2094,6396.56
31.2644,3023.06
31.3194,2534.77
31.3744,2232.71
31.4294,2021.63
31.4844,1745.49
31.5394,1554.41
31.5944,1378.33
31.6494,1206.96
31.7044,1264.73
31.7594,1282.13
31.8144,1238.33
31.8694,1283.13
31.9244,1326.83
31.9794,1723.96
32.0344,1747.63
32.0894,1703.6
32.1444,1349.34
32.1994,1216.91
32.2544,1146.32
32.3094,1215.69
32.3644,1230.54
32.4194,1247.87
32.4744,1340.72
32.5294,1372.84
32.5844,1469.33
32.6394,1275.83
32.6944,1177.71
32.7494,1110.63
32.8044,1116.78
32.8594,1133.653
32.9144,1117.58
32.9694,1073.04
33.0244,1087.572
33.0794,1074.89
33.1344,1070.73
33.1894,986.3804
33.2444,1057.58
33.2994,1065.83
33.3544,1022.16
33.4094,1012.87
33.4644,980.4089
33.5194,968.6738
33.5744,953.9812
33.6294,989.2598
33.6844,1057.63
33.7394,977.294
33.7944,981.5526
33.8494,966.4402
33.9044,978.9489
33.9594,982.693
34.0144,959.5152
34.0694,934.5192
34.1244,985.0268
34.1794,956.1759
34.2344,954.7077
34.2894,1040.726
34.3444,1004.1
34.3994,1032.91
34.4544,1023.35
34.5094,981.9842
34.5644,951.7252
34.6194,965.0326
34.6744,964.5092
34.7294,988.9468
34.7844,936.4203
34.8394,922.6095
34.8944,928.8376
34.9494,977.1305
35.0044,919.8317
35.0594,1011.93
35.1144,946.7138
35.1694,955.3657
35.2244,968.0084
35.2794,951.2653
35.3344,961.3575
35.3894,913.7555
35.4444,912.4043
35.4994,934.9233
35.5544,925.7845
35.6094,915.8817
35.6644,941.4874
35.7194,864.0719
35.7744,908.7612
35.8294,904.1452
35.8844,895.4547
35.9394,885.186
35.9944,926.4696
36.0494,950.9028
36.1044,913.519
36.1594,898.6785
36.2144,865.5335
36.2694,861.4511
36.3244,876.3928
36.3794,900.3805
36.4344,892.3307
36.4894,891.501
36.5444,867.8678
36.5994,893.3928
36.6544,884.4433
36.7094,880.5672
36.7644,865.7253
36.8194,823.0802
36.8744,837.2468
36.9294,878.2805
36.9844,879.5629
37.0394,840.6292
37.0944,847.1002
37.1494,836.5485
37.2044,864.916
37.2594,857.3184
37.3144,821.2914
37.3694,826.328
37.4244,824.4039
37.4794,846.4114
37.5344,847.8478
37.5894,866.4307
37.6444,885.8419
37.6994,825.7033
37.7544,840.611
37.8094,857.1111
37.8644,818.007
37.9194,800.8819
37.9744,817.6593
38.0294,858.9326
38.0844,843.2872
38.1394,830.4068
38.1944,857.8124
38.2494,797.2034
38.3044,794.768
38.3594,816.6827
38.4144,794.6875
38.4694,811.4837
38.5244,839.3172
38.5794,848.4546
38.6344,865.6434
38.6894,808.0601
38.7444,825.6501
38.7994,822.0344
38.8544,805.2618
38.9094,833.926
38.9644,808.5111
39.0194,812.5681
39.0744,819.0456
39.1294,783.4715
39.1844,807.1956
39.2394,790.3275
39.2944,802.7047
39.3494,800.5179
39.4044,788.4584
39.4594,765.756
39.5144,778.5618
39.5694,816.1916
39.6244,775.5785
39.6794,809.2811
39.7344,787.155
39.7894,786.0257
39.8444,777.5096
39.8994,843.5871
39.9544,870.1453
40.0094,881.4713
40.0644,878.1401
40.1194,845.4198
40.1744,835.1609
40.2294,819.1768
40.2844,848.1753
40.3394,864.0217
40.3944,905.3013
40.4494,833.9037
40.5044,817.9043
40.5594,805.2684
40.6144,813.4392
40.6694,853.7951
40.7244,922.4381
40.7794,897.0133
40.8344,898.6893
40.8894,926.7491
40.9444,947.8404
40.9994,921.1594
41.0544,873.2656
41.1094,904.7956
41.1644,845.6806
41.2194,844.6903
41.2744,846.8164
41.3294,889.3897
41.3844,922.1257
41.4394,839.6428
41.4944,905.2963
41.5494,895.2892
41.6044,888.1982
41.6594,918.9357
41.7144,870.8099
41.7694,886.6514
41.8244,881.63
41.8794,884.5341
41.9344,837.5568
41.9894,851.0126
42.0444,891.162
42.0994,886.923
42.1544,887.5474
42.2094,831.1767
42.2644,894.0047
42.3194,841.8709
42.3744,908.4119
42.4294,926.75
42.4844,903.1526
42.5394,1023.65
42.5944,1270.116
42.6494,2098.15
42.7044,4202.96
42.7594,4974.11
42.8144,3154.4
42.8694,2244.37
42.9244,1086.04
42.9794,908.7389
43.0344,919.9114
43.0894,914.1782
43.1444,860.1951
43.1994,869.177
43.2544,838.1892
43.3094,832.6558
43.3644,833.2598
43.4194,804.5387
43.4744,802.723
43.5294,785.2158
43.5844,780.4517
43.6394,777.0946
43.6944,783.5663
43.7494,784.1468
43.8044,834.3623
43.8594,822.0326
43.9144,811.081
43.9694,812.5597
44.0244,813.3326
44.0794,833.2115
44.1344,863.3375
44.1894,845.6189
44.2444,820.3667
44.2994,803.9849
44.3544,819.5337
44.4094,790.3106
44.4644,795
44.5194,820.9085
44.5744,766.113
44.6294,759.4765
44.6844,784.6993
44.7394,873.8645
44.7944,813.8457
44.8494,872.7585
44.9044,828.2811
44.9594,833.0493
45.0144,862.1814
45.0694,842.004
45.1244,847.6297
45.1794,861.8849
45.2344,812.6339
45.2894,796.6511
45.3444,793.3157
45.3994,773.2956
45.4544,780.1642
45.5094,762.4484
45.5644,779.9604
45.6194,782.3129
45.6744,815.5758
45.7294,813.5843
45.7844,765.6067
45.8394,812.2477
45.8944,803.8557
45.9494,835.0315
46.0044,873.6859
46.0594,1041.54
46.1144,1655.68
46.1694,3224.7
46.2244,2882.43
46.2794,2176.24
46.3344,1486.464
46.3894,862.1502
46.4444,795.5838
46.4994,773.3953
46.5544,753.2631
46.6094,726.5392
46.6644,773.7345
46.7194,731.718
46.7744,752.9343
46.8294,762.3836
46.8844,752.1606
46.9394,819.538
46.9944,876.2903
47.0494,1012.02
47.1044,1433.02
47.1594,2463.17
47.2144,2265.4
47.2694,1706.05
47.3244,1315.98
47.3794,811.8196
47.4344,778.2474
47.4894,780.1004
47.5444,711.9455
47.5994,715.4514
47.6544,729.2212
47.7094,746.986
47.7644,700.1722
47.8194,764.8937
47.8744,657.5408
47.9294,742.6769
47.9844,687.4838
48.0394,696.8868
48.0944,710.0482
48.1494,708.9202
48.2044,701.4094
48.2594,713.8229
48.3144,702.4028
48.3694,685.3899
48.4244,721.7507
48.4794,688.3776
48.5344,714.9069
48.5894,721.7905
48.6444,707.0839
48.6994,699.0037
48.7544,722.8671
48.8094,693.6015
48.8644,675.4842
48.9194,729.2457
48.9744,723.0184
49.0294,729.1092
49.0844,699.4634
49.1394,686.2657
49.1944,703.8635
49.2494,673.417
49.3044,732.1991
49.3594,759.6426
49.4144,728.2133
49.4694,761.8795
49.5244,780.4928
49.5794,860.9435
49.6344,1160.96
49.6894,2055.05
49.7444,3338.42
49.7994,2068.02
49.8544,1911.72
49.9094,1176.37
49.9644,787.0536
50.0194,736.5707
50.0744,697.0987
50.1294,696.3184
50.1844,721.3754
50.2394,646.0003
50.2944,686.0165
50.3494,602.8311
50.4044,663.5837
50.4594,675.3862
50.5144,612.0207
50.5694,655.4211
50.6244,641.4159
50.6794,625.4197
50.7344,661.4044
50.7894,685.8137
50.8444,640.6138
50.8994,651.6404
50.9544,637.9943
51.0094,635.7237
51.0644,624.4185
51.1194,640.274
51.1744,644.5973
51.2294,645.7515
51.2844,623.4176
51.3394,605.3239
51.3944,624.572
51.4494,634.8079
51.5044,614.3825
51.5594,600.9892
51.6144,652.495
51.6694,613.7612
51.7244,629.5169
51.7794,597.0176
51.8344,651.5999
51.8894,640.3217
51.9444,611.4643
51.9994,637.421
52.0544,597.4083
52.1094,597.035
52.1644,660.501
52.2194,633.5775
52.2744,634.019
52.3294,663.1906
52.3844,630.3163
52.4394,629.0119
52.4944,640.8924
52.5494,603.7945
52.6044,597
52.6594,630.7454
52.7144,622.5287
52.7694,631.7669
52.8244,637.6531
52.8794,628.4553
52.9344,634.4146
52.9894,677.8857
53.0444,620.4079
53.0994,613.0351
53.1544,636.4861
53.2094,627.4093
53.2644,677.3687
53.3194,681.3252
53.3744,660.3504
53.4294,686.7907
53.4844,677.1823
53.5394,679.5349
53.5944,783.8892
53.6494,1038.805
53.7044,1635.27
53.7594,2266.38
53.8144,1336.53
53.8694,1399.027
53.9244,871.3664
53.9794,731.6642
54.0344,576.0929
54.0894,633.0355
54.1444,580.1354
54.1994,633.4538
54.2544,641.9603
54.3094,618.184
54.3644,620.1556
54.4194,628.2387
54.4744,604.254
54.5294,607.5731
54.5844,560.8585
54.6394,572.4387
54.6944,611.2944
54.7494,578.782
54.8044,580.7286
54.8594,578.3808
54.9144,580.9807
54.9694,596.0489
55.0244,601.8756
55.0794,574.4783
55.1344,540.1826
55.1894,568.6635
55.2444,603.8852
55.2994,624.2017
55.3544,592.3419
55.4094,564.9522
55.4644,599.9029
55.5194,605.9026
55.5744,564.2211
55.6294,569.992
55.6844,582.4144
55.7394,559.9908
55.7944,571.0152
55.8494,558.2311
55.9044,570.338
55.9594,587.4186
56.0144,544.9883
56.0694,560.4783
56.1244,586.6975
56.1794,578.1495
56.2344,586.618
56.2894,573.5224
56.3444,573.7946
56.3994,563.0884
56.4544,559.1667
56.5094,566.3758
56.5644,599.9868
56.6194,546.2306
56.6744,551.0735
56.7294,517.059
56.7844,545.0892
56.8394,555.9331
56.8944,522.4104
56.9494,550.1872
57.0044,576.4872
57.0594,536.1067
57.1144,555.8628
57.1694,549.8156
57.2244,571.3566
57.2794,547.8985
57.3344,613.1967
57.3894,547.3212
57.4444,558.9462
57.4994,552.9553
57.5544,531.0973
57.6094,535.4477
57.6644,562.6288
57.7194,558.3425
57.7744,507.6891
57.8294,551.8613
57.8844,554.0779
57.9394,563.1968
57.9944,580.6447
58.0494,552.4246
58.1044,560.5813
58.1594,514.8875
58.2144,542.4936
58.2694,545.9949
58.3244,590.2342
58.3794,533.2977
58.4344,585.4695
58.4894,630.8038
58.5444,616.978
58.5994,663.7367
58.6544,673.2631
58.7094,762.4364
58.7644,839.5045
58.8194,1191.59
58.8744,2301.34
58.9294,5022.64
58.9844,6986.18
59.0394,3284.13
59.0944,3800.826
59.1494,2444.074
59.2044,972.8903
59.2594,691.9147
59.3144,712.4402
59.3694,654.5573
59.4244,652.2653
59.4794,650.4659
59.5344,733.1461
59.5894,630.569
59.6444,604.9116
59.6994,633.2092
59.7544,582.9723
59.8094,554.8981
59.8644,568.636
59.9194,534.4617
59.9744,554.8192
60.0294,542.0794
60.0844,560.3078
60.1394,557.3205
60.1944,511.1382
60.2494,539.5805
60.3044,489.2169
60.3594,512.9467
60.4144,494.853
60.4694,497.3778
60.5244,521.9332
60.5794,508.6158
60.6344,484.8222
60.6894,523.9057
60.7444,515.5472
60.7994,491.1687
60.8544,484.6135
60.9094,486.0022
60.9644,513.4482
61.0194,506.4777
61.0744,502.4658
61.1294,470.6756
61.1844,508.1108
61.2394,478.3043
61.2944,505.3094
61.3494,526.3567
61.4044,508.9615
61.4594,494.4052
61.5144,502.1373
61.5694,524.1249
61.6244,490.0292
61.6794,518.7701
61.7344,485.6581
61.7894,483.4325
61.8444,510.7036
61.8994,498.8962
61.9544,505.8841
62.0094,494.6371
62.0644,504.888
62.1194,522.2278
62.1744,458.2691
62.2294,531.6988
62.2844,498.061
62.3394,509.4897
62.3944,479.0932
62.4494,487.0075
62.5044,477.0837
62.5594,499.1379
62.6144,486.106
62.6694,501
62.7244,474.331
62.7794,477.6291
62.8344,506.2761
62.8894,517.1248
62.9444,492.4688
62.9994,473.8938
63.0544,495.1596
63.1094,478.8998
63.1644,520.6593
63.2194,526.2191
63.2744,485.7195
63.3294,506.0414
63.3844,506.7775
63.4394,528.4328
63.4944,499.1058
63.5494,540.8998
63.6044,522.9863
63.6594,536.5553
63.7144,502.9106
63.7694,509.4169
63.8244,492.8651
63.8794,538.6635
63.9344,508.889
63.9894,532.2305
64.0444,514.0612
64.0994,549.7355
64.1544,524.0663
64.2094,547.8641
64.2644,558.2444
64.3194,572.7869
64.3744,599.0177
64.4294,611.1636
64.4844,598.5484
64.5394,677.7808
64.5944,877.9749
64.6494,1545.09
64.7044,3228.2
64.7594,3054.66
64.8144,1567.556
64.8694,2156.61
64.9244,1461.58
64.9794,770.8931
65.0344,647.8149
65.0894,663.1373
65.1444,683.2865
65.1994,819.0852
65.2544,960.3391
65.3094,837
65.3644,775.6101
65.4194,719.9364
65.4744,614.7696
65.5294,556.0082
65.5844,523.5717
65.6394,537.0884
65.6944,520.6919
65.7494,474.137
65.8044,506.8837
65.8594,516.5582
65.9144,506.1224
65.9694,505.77
66.0244,472.3862
66.0794,499.985
66.1344,503.2288
66.1894,478.4076
66.2444,505.3711
66.2994,444.9319
66.3544,468.957
66.4094,484.3825
66.4644,481.5795
66.5194,453.7864
66.5744,519.59
66.6294,497.7016
66.6844,476.1164
66.7394,495.7822
66.7944,469.2042
66.8494,493.219
66.9044,497.3861
66.9594,496.8489
67.0144,452.7359
67.0694,475.6676
67.1244,483.801
67.1794,471.3541
67.2344,483.6737
67.2894,437.7516
67.3444,464.8636
67.3994,511.1214
67.4544,475.1292
67.5094,515.3453
67.5644,556.6417
67.6194,610.3973
67.6744,497.7368
67.7294,501.0766
67.7844,526.6518
67.8394,500.3917
67.8944,455.4359
67.9494,452.4775
68.0044,475.3949
68.0594,461.1071
68.1144,447.7238
68.1694,441.6197
68.2244,443.82
68.2794,499.416
68.3344,504.8799
68.3894,494.9827
68.4444,467.1325
68.4994,494.6478
68.5544,469.5457
68.6094,436.2423
68.6644,464.2877
68.7194,458.5605
68.7744,491.3634
68.8294,437.7617
68.8844,426.3887
68.9394,490.3711
68.9944,461.9142
69.0494,457.2962
69.1044,447.7223
69.1594,440.9985
69.2144,434.5037
69.2694,444.5783
69.3244,490.2055
69.3794,466.8064
69.4344,428
69.4894,434.8021
69.5444,474.0283
69.5994,464.8996
69.6544,460.5024
69.7094,442.1977
69.7644,448.8881
69.8194,435.7655
69.8744,458.2649
69.9294,436.8939
69.9844,477.2368
70.0394,489.0983
70.0944,467.9631
70.1494,436.6394
70.2044,488.1395
70.2594,459.3101
70.3144,482.224
70.3694,441.9491
70.4244,478.0351
70.4794,527.6401
70.5344,538.0853
70.5894,564.9675
70.6444,552.0877
70.6994,628.1438
70.7544,701.497
70.8094,1033.11
70.8644,1899.41
70.9194,3595.08
70.9744,3796.61
71.0294,1972.937
71.0844,2062.13
71.1394,2176.11
71.1944,1172.59
71.2494,728.2559
71.3044,592.1395
71.3594,533.4281
71.4144,508.3626
71.4694,530.0077
71.5244,462.4391
71.5794,471.9794
71.6344,465.6962
71.6894,441.6894
71.7444,462.7728
71.7994,496.473
71.8544,514.3674
71.9094,415.9646
71.9644,470.7901
72.0194,428.6045
72.0744,467.2768
72.1294,443.9192
72.1844,455.8797
72.2394,449.9177
72.2944,456.4326
72.3494,446.3082
72.4044,456.8756
72.4594,469.6343
72.5144,464.6596
72.5694,439.6431
72.6244,447.8166
72.6794,470.6945
72.7344,451.826
72.7894,455.9489
72.8444,481.4615
72.8994,465.1418
72.9544,440.9877
73.0094,464.1365
73.0644,464.8452
73.1194,451.4684
73.1744,474.6185
73.2294,468.6364
73.2844,461.8898
73.3394,482.657
73.3944,486.9118
73.4494,502.4238
73.5044,487.3201
73.5594,436.7813
73.6144,501.5691
73.6694,519.7174
73.7244,490.9041
73.7794,504.6612
73.8344,503.5258
73.8894,522.2213
73.9444,496.2548
73.9994,482.1203
74.0544,495.5517
74.1094,510.0251
74.1644,488.4242
74.2194,460.8495
74.2744,429.9757
74.3294,455.3048
74.3844,435.3457
74.4394,472.8173
74.4944,480.1349
74.5494,434.2442
74.6044,466.8938
74.6594,435.9589
74.7144,433.3853
74.7694,445.1656
74.8244,460.2278
74.8794,431.8411
74.9344,452.2576
74.9894,472.0489
75.0444,452.1884
75.0994,456.3332
75.1544,426.149
75.2094,436.643
75.2644,428.0805
75.3194,442.4181
75.3744,470.4738
75.4294,458.3944
75.4844,436.943
75.5394,504.0472
75.5944,483.718
75.6494,477.4438
75.7044,480.3367
75.7594,473.1209
75.8144,478.407
75.8694,574.0174
75.9244,642.5733
75.9794,904.3412
76.0344,953.5926
76.0894,654.9855
76.1444,635.0446
76.1994,721.489
76.2544,575.0017
76.3094,471.1327
76.3644,453.6812
76.4194,420.2744
76.4744,430.161
76.5294,420.7441
76.5844,452.6526
76.6394,439.8289
76.6944,411.6489
76.7494,404.593
76.8044,410.27
76.8594,418.9649
76.9144,449.6687
76.9694,441.6144
77.0244,405.0545
77.0794,418.768
77.1344,414.4353
77.1894,442.0356
77.2444,420.379
77.2994,400.5649
77.3544,391.4827
77.4094,393.8344
77.4644,441.8297
77.5194,422.7204
77.5744,442.4316
77.6294,434.4753
77.6844,413.8017
77.7394,401.9566
77.7944,430.7706
77.8494,430.655
77.9044,407.8941
77.9594,420.9801
78.0144,418.6889
78.0694,454.9932
78.1244,539.3978
78.1794,527.1175
78.2344,593.6541
78.2894,502.7212
78.3444,484.5486
78.3994,542.3871
78.4544,454.2176
78.5094,405.3421
78.5644,417.4458
78.6194,403.1664
78.6744,430.8026
78.7294,403.3394
78.7844,424.0192
78.8394,423.4691
78.8944,446.2473
78.9494,446.0103
79.0044,444.1612
79.0594,410.7272
79.1144,415.5787
79.1694,415.1033
79.2244,404.612
79.2794,418.8449
79.3344,416.9297
79.3894,442.4516
79.4444,395.7265
79.4994,423.6401
79.5544,402.9281
79.6094,407.2408
79.6644,423.5945
79.7194,402.5644
79.7744,437.1438
79.8294,437.9557
79.8404,420.7928