File: RP-XRD-S2-2022/Sample_A.csv
Angle,Counts
8.1379,4861.22
8.2039,4672.23
8.2699,4771.33
8.3359,4690.21
8.4019,4724.06
8.4679,4614.83
8.5339,4608.11
8.5999,4665.9
8.6659,4533.14
8.7319,4538.37
8.7979,4576.13
8.8639,4441.22
8.9299,4473.72
8.9959,4472.95
9.0619,4471.36
9.1279,4330.7
9.1939,4334.5
9.2599,4217.86
9.3259,4312.22
9.3919,4302.67
9.4579,4264.2
9.5239,4252.95
9.5899,4204.83
9.6559,4169.44
9.7219,4152.239
9.7879,4198.51
9.8539,4144.81
9.9199,4147.17
9.9859,4145.46
10.0519,4279.67
10.1179,4345.93
10.1839,4581.96
10.2499,4785.96
10.3159,4768.87
10.3819,4206.64
10.4479,3875.34
10.5139,3830.61
10.5799,3785.59
10.6459,3797.63
10.7119,3785.01
10.7779,3643.761
10.8439,3662.26
10.9099,3691.81
10.9759,3650.37
11.0419,3600.7
11.1079,3524.739
11.1739,3635.71
11.2399,3489.83
11.3059,3444.67
11.3719,3382.55
11.4379,3344.64
11.5039,3447.96
11.5699,3424.27
11.6359,3299.83
11.7019,3464.59
11.7679,3381.77
11.8339,3403.92
11.8999,3363.01
11.9659,3251.83
12.0319,3380.71
12.0979,3409.04
12.1639,3527.78
12.2299,3419.75
12.2959,3312.24
12.3619,3321.35
12.4279,3275.19
12.4939,3232.65
12.5599,3351.67
12.6259,3296.03
12.6919,3215.94
12.7579,3104.91
12.8239,3235.67
12.8899,3184.646
12.9559,3341.48
13.0219,3197.7
13.0879,3309.81
13.1539,3235.55
13.2199,3221.36
13.2859,3271.938
13.3519,3350.12
13.4179,3187.51
13.4839,3391.22
13.5499,3456.83
13.6159,3455.61
13.6819,3414.07
13.7479,3494.53
13.8139,3685.239
13.8799,3675.96
13.9459,3872.17
14.0119,4206.88
14.0779,4531.17
14.1439,4983.94
14.2099,5568.8
14.2759,6180.68
14.3419,6618.58
14.4079,5905.1
14.4739,4797.814
14.5399,4162.8
14.6059,3683.34
14.6719,3271.08
14.7379,3099.59
14.8039,2986.944
14.8699,2905.04
14.9359,2878.295
15.0019,2762.01
15.0679,2783.61
15.1339,2707.239
15.1999,2643.17
15.2659,2789.5
15.3319,2723.379
15.3979,2681.17
15.4639,2620.27
15.5299,2551.68
15.5959,2534.6
15.6619,2528.42
15.7279,2566.03
15.7939,2619.14
15.8599,2574.03
15.9259,2595.7
15.9919,2574.93
16.0579,2733.11
16.1239,2934.64
16.1899,2671.15
16.2559,2458.47
16.3219,2352.17
16.3879,2351.6
16.4539,2378.93
16.5199,2404.18
16.5859,2295.17
16.6519,2414.68
16.7179,2415.13
16.7839,2355.5
16.8499,2291.32
16.9159,2298.71
16.9819,2218.77
17.0479,2306.69
17.1139,2318.47
17.1799,2243.47
17.2459,2272.55
17.3119,2346.031
17.3779,2282.478
17.4439,2415.6
17.5099,2315.24
17.5759,2282.59
17.6419,2250.55
17.7079,2269.55
17.7739,2215.46
17.8399,2274.37
17.9059,2231.25
17.9719,2207.95
18.0379,2118.37
18.1039,2333.62
18.1699,2234.84
18.2359,2163.96
18.3019,2196.06
18.3679,2120.43
18.4339,2256.469
18.4999,2204.87
18.5659,2092.31
18.6319,2226.42
18.6979,2125
18.7639,2207.51
18.8299,2195.03
18.8959,2169.59
18.9619,2145.03
19.0279,2149.124
19.0939,2136.118
19.1599,2148.77
19.2259,2181.124
19.2919,2053.99
19.3579,2151.4
19.4239,2069.4
19.4899,2141.92
19.5559,2064.49
19.6219,2017.73
19.6879,2170.53
19.7539,2179.475
19.8199,2213.23
19.8859,2109.97
19.9519,2092.7
20.0179,2106.2
20.0839,2145.94
20.1499,2156.25
20.2159,2166.82
20.2819,2209.92
20.3479,2193.21
20.4139,2141.23
20.4799,2249.69
20.5459,2281.48
20.6119,2292.39
20.6779,2331.82
20.7439,2311.11
20.8099,2234.44
20.8759,2208.95
20.9419,2112.78
21.0079,2129.6
21.0739,2144.57
21.1399,2171.28
21.2059,2170.35
21.2719,2241.51
21.3379,2271.77
21.4039,2060.22
21.4699,2194.42
21.5359,2184.35
21.6019,2106.93
21.6679,2195.07
21.7339,2041.248
21.7999,2188.58
21.8659,2230.83
21.9319,2171.66
21.9979,2263.46
22.0639,2212.329
22.1299,2149.25
22.1959,2177.95
22.2619,2188.3
22.3279,2256.83
22.3939,2342.43
22.4599,2384.17
22.5259,2457.944
22.5919,2493.62
22.6579,2579.2
22.7239,2727.28
22.7899,2846.55
22.8559,3066.031
22.9219,3586.66
22.9879,3835.4
23.0539,4282.708
23.1199,4554.58
23.1859,4372.628
23.2519,4272.485
23.3179,4113.46
23.3839,3904.73
23.4499,3873.06
23.5159,3766.95
23.5819,3992.65
23.6479,3830.34
23.7139,3873.25
23.7799,3812.13
23.8459,3790.77
23.9119,3643.61
23.9779,3835.717
24.0439,4082.81
24.1099,4832.13
24.1759,7142.37
24.2419,14117.8
24.3079,11957.839
24.3739,5180.05
24.4399,4140.5
24.5059,3763.02
24.5719,3582.593
24.6379,3436.55
24.7039,3413.68
24.7699,3273.27
24.8359,3359.11
24.9019,3249.04
24.9679,3247.168
25.0339,3104.24
25.0999,3163.62
25.1659,3077.32
25.2319,3116.67
25.2979,2917.17
25.3639,3068.04
25.4299,2982.65
25.4959,3357.46
25.5619,3845.89
25.6279,4573.7
25.6939,3949.16
25.7599,3134.81
25.8259,2960
25.8919,3394.24
25.9579,3703.787
26.0239,3046.54
26.0899,2924.73
26.1559,2923
26.2219,2779.31
26.2879,2804.41
26.3539,2822.04
26.4199,2667.41
26.4859,2795.26
26.5519,2760.59
26.6179,2859.72
26.6839,2860.599
26.7499,2918.34
26.8159,3088.26
26.8819,3036.85
26.9479,2941.5
27.0139,3165.66
27.0799,2888.45
27.1459,2636.9
27.2119,2752.03
27.2779,2768.496
27.3439,3234.32
27.4099,3874.96
27.4759,3304.06
27.5419,2824.27
27.6079,2702.7
27.6739,2732.57
27.7399,3000.474
27.8059,3400.162
27.8719,3052.57
27.9379,2961.31
28.0039,3034.75
28.0699,3118.5
28.1359,3459.59
28.2019,3596.06
28.2679,3552.52
28.3339,3293.69
28.3999,2946.81
28.4659,2909.18
28.5319,2909
28.5979,3060.75
28.6639,3175.18
28.7299,3385
28.7959,3680.19
28.8619,4030.55
28.9279,4792.22
28.9939,4787.62
29.0599,4313.08
29.1259,3876.07
29.1919,3532.92
29.2579,3318.33
29.3239,3390.94
29.3899,3332.78
29.4559,3264.65
29.5219,3178.08
29.5879,3126.77
29.6539,3114.55
29.7199,3242.73
29.7859,3193.76
29.8519,3150.28
29.9179,2991.62
29.9839,2707.867
30.0499,2516.83
30.1159,2527.06
30.1819,2504.5
30.2479,2587.15
30.3139,2613.1
30.3799,2665.22
30.4459,2664.7
30.5119,2738.18
30.5779,2888.941
30.6439,3166.77
30.7099,3686.824
30.7759,4758.22
30.8419,5497.48
30.9079,10527.048
30.9739,27230.8
31.0399,45695.1
31.1059,23355.3
31.1719,6367.11
31.2379,4034.62
31.3039,3458.74
31.3699,3121.37
31.4359,3102.36
31.5019,3087.7
31.5679,2946.45
31.6339,2558.513
31.6999,2550.87
31.7659,2524.33
31.8319,2744.06
31.8979,3166.11
31.9639,3530.73
32.0299,3798.59
32.0959,3208.86
32.1619,2694.91
32.2279,2664.11
32.2939,3050.51
32.3599,3298.76
32.4259,4213.02
32.4919,5167.44
32.5579,4910.99
32.6239,4709.8
32.6899,3306.21
32.7559,2715.87
32.8219,2818.31
32.8879,2642.33
32.9539,2402.13
33.0199,2229.28
33.0859,2106.25
33.1519,2100.34
33.2179,2105.59
33.2839,2075.81
33.3499,1945.44
33.4159,1888.88
33.4819,1905.95
33.5479,1915.41
33.6139,1967
33.6799,1919.89
33.7459,1950.09
33.8119,1861.81
33.8779,1856.37
33.9439,1964.78
34.0099,1972.24
34.0759,1883.14
34.1419,2082.05
34.2079,2054.84
34.2739,1960.71
34.3399,1876.45
34.4059,1847.658
34.4719,1831.57
34.5379,1861.42
34.6039,1809.53
34.6699,1835.58
34.7359,1883.34
34.8019,1924.9
34.8679,1912.59
34.9339,1886.01
34.9999,1930.91
35.0659,2041.33
35.1319,2030.69
35.1979,1936.78
35.2639,1941.27
35.3299,1865.63
35.3959,1837.42
35.4619,1963.67
35.5279,2089.22
35.5939,1971.45
35.6599,1787.42
35.7259,1706.289
35.7919,1737.03
35.8579,1803.83
35.9239,1879.4
35.9899,1861.1
36.0559,1698.04
36.1219,1703.29
36.1879,1631.55
36.2539,1709.04
36.3199,1650.456
36.3859,1846.85
36.4519,1879.84
36.5179,1753.31
36.5839,1706.475
36.6499,1737.885
36.7159,1667.61
36.7819,1698.63
36.8479,1787.3
36.9139,2416.76
36.9799,2972.47
37.0459,2357.71
37.1119,1796.8
37.1779,1622.401
37.2439,1613.53
37.3099,1610.947
37.3759,1599.96
37.4419,1717.93
37.5079,1560.36
37.5739,1561.54
37.6399,1565.27
37.7059,1585.49
37.7719,1640.43
37.8379,1573.239
37.9039,1581.66
37.9699,1512.12
38.0359,1524.96
38.1019,1446.61
38.1679,1581.96
38.2339,1539.63
38.2999,1527.06
38.3659,1470.94
38.4319,1550.01
38.4979,1600.64
38.5639,1627.93
38.6299,1520.77
38.6959,1436.22
38.7619,1457.26
38.8279,1443.46
38.8939,1461.847
38.9599,1467.16
39.0259,1470.72
39.0919,1444.54
39.1579,1354.283
39.2239,1404.792
39.2899,1430.94
39.3559,1460.98
39.4219,1455.91
39.4879,1401.02
39.5539,1452.8
39.6199,1475.97
39.6859,1488.047
39.7519,1505.18
39.8179,1603
39.8839,1590.99
39.9499,1580.96
40.0159,1616.03
40.0819,1641.59
40.1479,1666.76
40.2139,1822.02
40.2799,1736.264
40.3459,1767.779
40.4119,1841.29
40.4779,1917.531
40.5439,2051.53
40.6099,2134.3
40.6759,2336.46
40.7419,2543
40.8079,2703.41
40.8739,2633.5
40.9399,2455.97
41.0059,2400.5
41.0719,2259.33
41.1379,2205.351
41.2039,2098.04
41.2699,2138.59
41.3359,2104.76
41.4019,2124.67
41.4679,2086
41.5339,2056.8
41.5999,2017.407
41.6659,1971.22
41.7319,1989.24
41.7979,1999.91
41.8639,2166.8
41.9299,2200.12
41.9959,2217.17
42.0619,2149.221
42.1279,2077.504
42.1939,1993.35
42.2599,1962.83
42.3259,1864.93
42.3919,1929.89
42.4579,1898.198
42.5239,2053.49
42.5899,2640.58
42.6559,5519.03
42.7219,5483.446
42.7879,4486.46
42.8539,2201.79
42.9199,1884.79
42.9859,1912.11
43.0519,1732.77
43.1179,1797.68
43.1839,1888.16
43.2499,2005.15
43.3159,2001.95
43.3819,1862.35
43.4479,1751.27
43.5139,1736.82
43.5799,1725.57
43.6459,1773.28
43.7119,1796.714
43.7779,1862.79
43.8439,1933.45
43.9099,1889.37
43.9759,1871.74
44.0419,2015.08
44.1079,2089.46
44.1739,1961.13
44.2399,1938.93
44.3059,1770.5
44.3719,1796.93
44.4379,1787.72
44.5039,1861.26
44.5699,1881.36
44.6359,1859.79
44.7019,1996.5
44.7679,2072.735
44.8339,2169.24
44.8999,2163.52
44.9659,2227.58
45.0319,2180.02
45.0979,2190.5
45.1639,1970.07
45.2299,1948.71
45.2959,1840.36
45.3619,1707.62
45.4279,1759.61
45.4939,1765.41
45.5599,1700.23
45.6259,1703.6
45.6919,1701.99
45.7579,1734.34
45.8239,1753.71
45.8899,1789.48
45.9559,1782.49
46.0219,1950.91
46.0879,2471.55
46.1539,4080.303
46.2199,2791.69
46.2859,2656.2
46.3519,1589.4
46.4179,1546.92
46.4839,1464.72
46.5499,1444.43
46.6159,1430.65
46.6819,1452.29
46.7479,1411
46.8139,1438.49
46.8799,1367.78
46.9459,1446.81
47.0119,1594.84
47.0779,2034.05
47.1439,2924.42
47.2099,2111.17
47.2759,1882.55
47.3419,1435.64
47.4079,1415.05
47.4739,1399.33
47.5399,1384.11
47.6059,1412.61
47.6719,1440.875
47.7379,1466.6
47.8039,1450.86
47.8699,1384.32
47.9359,1380.96
48.0019,1348.68
48.0679,1400.84
48.1339,1405.03
48.1999,1424.76
48.2659,1387.17
48.3319,1468
48.3979,1357.26
48.4639,1359.6
48.5299,1325
48.5959,1295.82
48.6619,1316.49
48.7279,1396.58
48.7939,1373.08
48.8599,1482.7
48.9259,1842.26
48.9919,1525.45
49.0579,1562.79
49.1239,1327.323
49.1899,1316.79
49.2559,1354.37
49.3219,1291.68
49.3879,1324.53
49.4539,1354.19
49.5199,1437.226
49.5859,1626
49.6519,2564.8
49.7179,4040.88
49.7839,2650.74
49.8499,2391.86
49.9159,1526.31
49.9819,1478.01
50.0479,1395.83
50.1139,1332.885
50.1799,1382.31
50.2459,1269.56
50.3119,1218.31
50.3779,1254.02
50.4439,1266.77
50.5099,1191.81
50.5759,1209.28
50.6419,1251.386
50.7079,1266.65
50.7739,1254.44
50.8399,1250.6
50.9059,1195.35
50.9719,1225.91
51.0379,1243.01
51.1039,1186.14
51.1699,1209.1
51.2359,1205.4
51.3019,1178.96
51.3679,1157.24
51.4339,1171.88
51.4999,1176.43
51.5659,1149.37
51.6319,1171.87
51.6979,1187.58
51.7639,1174.84
51.8299,1147.23
51.8959,1168.69
51.9619,1168.85
52.0279,1121.78
52.0939,1112.38
52.1599,1219.37
52.2259,1193.32
52.2919,1210.74
52.3579,1171.78
52.4239,1187.81
52.4899,1212.12
52.5559,1226.28
52.6219,1252.38
52.6879,1231.34
52.7539,1231.59
52.8199,1212.06
52.8859,1267.97
52.9519,1313.816
53.0179,1296.59
53.0839,1395.95
53.1499,1436.32
53.2159,1569.32
53.2819,1776.47
53.3479,1701.23
53.4139,1621.88
53.4799,1496.6
53.5459,1517.92
53.6119,1758.28
53.6779,2249.97
53.7439,2332.88
53.8099,1862.99
53.8759,1589.37
53.9419,1306.17
54.0079,1246.63
54.0739,1233.17
54.1399,1191.09
54.2059,1254.67
54.2719,1203.74
54.3379,1189.18
54.4039,1220.9
54.4699,1186.59
54.5359,1203.96
54.6019,1121.115
54.6679,1181.43
54.7339,1177.13
54.7999,1143.23
54.8659,1149.82
54.9319,1199.43
54.9979,1186.32
55.0639,1174.06
55.1299,1180.74
55.1959,1198.24
55.2619,1202.5
55.3279,1242.565
55.3939,1229.48
55.4599,1203.72
55.5259,1213.79
55.5919,1166.73
55.6579,1136.92
55.7239,1166.16
55.7899,1150.79
55.8559,1198.33
55.9219,1139.01
55.9879,1153.83
56.0539,1166.27
56.1199,1128.1
56.1859,1174.05
56.2519,1147.95
56.3179,1202.71
56.3839,1266.44
56.4499,1254.56
56.5159,1299.78
56.5819,1252.98
56.6479,1174.64
56.7139,1209.82
56.7799,1150.51
56.8459,1094.53
56.9119,1088.95
56.9779,1103.56
57.0439,1084.19
57.1099,1046.81
57.1759,1087.3
57.2419,1100.18
57.3079,1125.01
57.3739,1145.764
57.4399,1128.22
57.5059,1120.75
57.5719,1115.52
57.6379,1172.67
57.7039,1172.397
57.7699,1240.78
57.8359,1348.79
57.9019,1271.9
57.9679,1311.62
58.0339,1164.59
58.0999,1107.77
58.1659,1146.01
58.2319,1218.56
58.2979,1167.056
58.3639,1167.91
58.4299,1151.5
58.4959,1260.79
58.5619,1398.23
58.6279,1321.89
58.6939,1455.96
58.7599,1507.06
58.8259,2249.52
58.8919,6058.25
58.9579,6835.05
59.0239,3892.83
59.0899,4234.97
59.1559,1631.694
59.2219,1154.194
59.2879,1190.33
59.3539,1306.528
59.4199,1278.68
59.4859,1328.67
59.5519,1351.38
59.6179,1261.07
59.6839,1162.67
59.7499,1127.73
59.8159,1117.31
59.8819,1161.23
59.9479,1135.018
60.0139,1129.96
60.0799,1217.08
60.1459,1339.65
60.2119,1155.81
60.2779,1126.2
60.3439,1079.79
60.4099,1028.46
60.4759,1005.41
60.5419,949.5954
60.6079,967.7655
60.6739,938.3361
60.7399,914.36
60.8059,938.2032
60.8719,955.9265
60.9379,956.3392
61.0039,938.951
61.0699,904.124
61.1359,866.4972
61.2019,1001.29
61.2679,927.1738
61.3339,954.7611
61.3999,943
61.4659,978.0443
61.5319,923.3761
61.5979,975.9822
61.6639,989.1971
61.7299,972.4985
61.7959,993.1726
61.8619,1017.45
61.9279,984.5469
61.9939,984.0263
62.0599,993.149
62.1259,972.5072
62.1919,1038.88
62.2579,959.3658
62.3239,1005.39
62.3899,1014.2
62.4559,970.4053
62.5219,999.7433
62.5879,956.9289
62.6539,1054.764
62.7199,997.7832
62.7859,998.4955
62.8519,978.0888
62.9179,1054.74
62.9839,997.0752
63.0499,996.3719
63.1159,1010.46
63.1819,1003.27
63.2479,1040.45
63.3139,1082.27
63.3799,1102.146
63.4459,1093
63.5119,1101.89
63.5779,1083.51
63.6439,1208.67
63.7099,1169.68
63.7759,1195.14
63.8419,1155.34
63.9079,1207.68
63.9739,1224.98
64.0399,1260.81
64.1059,1279.24
64.1719,1248.27
64.2379,1246.85
64.3039,1301.96
64.3699,1174.22
64.4359,1284.61
64.5019,1249.93
64.5679,1537.54
64.6339,2167.12
64.6999,2469.14
64.7659,1795.91
64.8319,1946.15
64.8979,1583.038
64.9639,1431.99
65.0299,1406.15
65.0959,1349.9
65.1619,1483.85
65.2279,1665.26
65.2939,1497.44
65.3599,1463.4
65.4259,1409.18
65.4919,1253.872
65.5579,1249.13
65.6239,1236.75
65.6899,1191.17
65.7559,1170.1
65.8219,1246.36
65.8879,1191.881
65.9539,1171.19
66.0199,1148.15
66.0859,1109.38
66.1519,1144.92
66.2179,1160.46
66.2839,1230.3
66.3499,1223.06
66.4159,1203.76
66.4819,1198.23
66.5479,1180.93
66.6139,1124.109
66.6799,1143.363
66.7459,1110.96
66.8119,1125.49
66.8779,1141.73
66.9439,1183.217
67.0099,1137.398
67.0759,1151.18
67.1419,1098.96
67.2079,1061.3
67.2739,1092.944
67.3399,972.4203
67.4059,981.982
67.4719,1004.71
67.5379,1076.69
67.6039,1047.78
67.6699,1002.861
67.7359,1032.65
67.8019,1007.21
67.8679,1011.22
67.9339,1001.81
67.9999,1014
68.0659,996.1385
68.1319,992.212
68.1979,997.7405
68.2639,1020.02
68.3299,1008.41
68.3959,983.3601
68.4619,988.1503
68.5279,1023.26
68.5939,1036.2
68.6599,1019.55
68.7259,1033.17
68.7919,999.3599
68.8579,980.8526
68.9239,960.9381
68.9899,960.2181
69.0559,1032.53
69.1219,997.3013
69.1879,999.2022
69.2539,1028.02
69.3199,1025.19
69.3859,1056.33
69.4519,1004.99
69.5179,971.7342
69.5839,998.3378
69.6499,956.8316
69.7159,969.0177
69.7819,984.546
69.8479,916.5778
69.9139,909.203
69.9799,949.2433
70.0459,1004.87
70.1119,964
70.1779,1000.66
70.2439,978.112
70.3099,961.6904
70.3759,992.2385
70.4419,1000.24
70.5079,1002.56
70.5739,1006.63
70.6399,1048.74
70.7059,1099.78
70.7719,1375.28
70.8379,2009.15
70.9039,3706.5
70.9699,2687.32
71.0359,2048.36
71.1019,2418.51
71.1679,1461.27
71.2339,1137.68
71.2999,987.3844
71.3659,1042.37
71.4319,987.9453
71.4979,956.8671
71.5639,1024.77
71.6299,992.1122
71.6959,1016.77
71.7619,939.5804
71.8279,927.3471
71.8939,1013.38
71.9599,1029.26
72.0259,1011.29
72.0919,938.9647
72.1579,970.9851
72.2239,982.2506
72.2899,1006.673
72.3559,1007.42
72.4219,1039.73
72.4879,1089.92
72.5539,1051.75
72.6199,1094.34
72.6859,1068.1
72.7519,1092.66
72.8179,1080.49
72.8839,1116.31
72.9499,1132.637
73.0159,1203.081
73.0819,1188.69
73.1479,1215.67
73.2139,1196.283
73.2799,1230.32
73.3459,1191.21
73.4119,1219.8
73.4779,1307.69
73.5439,1279.97
73.6099,1429.49
73.6759,1444.07
73.7419,1496.32
73.8079,1524.43
73.8739,1555.77
73.9399,1427.46
74.0059,1384.48
74.0719,1376.566
74.1379,1315.26
74.2039,1356.907
74.2699,1423.61
74.3359,1467.28
74.4019,1387.54
74.4679,1265.92
74.5339,1214.46
74.5999,1100.5
74.6659,1058.11
74.7319,1044.69
74.7979,1024.03
74.8639,1024.34
74.9299,1042.72
74.9959,1042.515
75.0619,1004.66
75.1279,970.6237
75.1939,924.4656
75.2599,973.6546
75.3259,1037.97
75.3919,993.369
75.4579,956.434
75.5239,1016.49
75.5899,1021.994
75.6559,1023.92
75.7219,1016.58
75.7879,1044.602
75.8539,1161.1
75.9199,1223.91
75.9859,1358.91
76.0519,1149.3
76.1179,1108.04
76.1839,1139.75
76.2499,1029.12
76.3159,982.3348
76.3819,946.5162
76.4479,902.4821
76.5139,901.6813
76.5799,874.5017
76.6459,901.9116
76.7119,863.8197
76.7779,909.2593
76.8439,892.3449
76.9099,944.7178
76.9759,934.1862
77.0419,875.646
77.1079,921.1521
77.1739,925.7901
77.2399,852.7084
77.3059,939.838
77.3719,935.0665
77.4379,961.8496
77.5039,968.5128
77.5699,935.8291
77.6359,939.9297
77.7019,883.3391
77.7679,926.0089
77.8339,937.2831
77.8999,909.572
77.9659,922.9733
78.0319,922.0577
78.0979,936.0331
78.1639,1046.49
78.2299,988.2566
78.2959,871.4716
78.3619,945.3335
78.4279,913.2653
78.4939,907.0383
78.5599,884.7948
78.6259,905.345
78.6919,947.7044
78.7579,995.6461
78.8239,930.7299
78.8899,927.1119
78.9559,956.9736
79.0219,936.8403
79.0879,906.7237
79.1539,890.3627
79.2199,862.8318
79.2859,881.3539
79.3519,883.9674
79.4179,898.9734
79.4839,850.6075
79.5499,844.4842
79.6159,886.5887
79.6819,915.6015
79.7479,880.441
79.8139,913.6816
79.8799,888.3836
79.9459,925.307
79.9899,877.5912