File: RP-XRD-S2-2022/Sample_D.csv
Pos. [°2?],Intensity [Counts]
7.5439,4942.32
7.6099,5032.65
7.6759,5030.91
7.7419,5075.938
7.8079,5094.4
7.8739,4899.41
7.9399,4880.63
8.0059,4830.6
8.0719,4712.69
8.1379,4725.59
8.2039,4656.94
8.2699,4639.37
8.3359,4688.22
8.4019,4607.82
8.4679,4523.02
8.5339,4375.12
8.5999,4482.05
8.6659,4395.525
8.7319,4434.81
8.7979,4289.38
8.8639,4295.75
8.9299,4271.56
8.9959,4225.92
9.0619,4140.91
9.1279,4101.2
9.1939,4024.38
9.2599,3997.51
9.3259,4058.66
9.3919,4035.15
9.4579,3974.81
9.5239,3881.59
9.5899,3976.97
9.6559,3900.28
9.7219,3813.33
9.7879,3803.593
9.8539,3856.23
9.9199,3827.43
9.9859,3831.11
10.0519,3784.39
10.1179,3827.11
10.1839,4145.59
10.2499,4371.63
10.3159,4326.93
10.3819,3793.47
10.4479,3682.79
10.5139,3583.177
10.5799,3503.3
10.6459,3434.42
10.7119,3392.88
10.7779,3331.25
10.8439,3394.87
10.9099,3406.81
10.9759,3410.18
11.0419,3342.09
11.1079,3341.88
11.1739,3275.01
11.2399,3277.33
11.3059,3257.68
11.3719,3272.79
11.4379,3252.08
11.5039,3228.51
11.5699,3146.82
11.6359,3167.652
11.7019,3219.98
11.7679,3097.84
11.8339,3090.171
11.8999,3157.584
11.9659,3119.08
12.0319,3073.83
12.0979,3127.9
12.1639,3237.58
12.2299,3117.03
12.2959,3109.81
12.3619,3059.64
12.4279,3043.25
12.4939,3048.885
12.5599,2928.29
12.6259,3056.37
12.6919,3006.73
12.7579,2975.08
12.8239,2995.37
12.8899,3119.21
12.9559,2993.86
13.0219,3036.87
13.0879,3055.86
13.1539,3131.28
13.2199,3058
13.2859,3025.61
13.3519,3017.37
13.4179,3026.26
13.4839,3015.42
13.5499,3113.73
13.6159,3114.2
13.6819,3159.89
13.7479,3264.5
13.8139,3309.18
13.8799,3422.45
13.9459,3487.9
14.0119,3603.7
14.0779,3844.24
14.1439,4215.55
14.2099,4553.64
14.2759,4876.54
14.3419,4999.95
14.4079,4708.01
14.4739,3920.7
14.5399,3435.4
14.6059,3085.09
14.6719,2953.75
14.7379,2901.62
14.8039,2793.1
14.8699,2745.73
14.9359,2654.06
15.0019,2655.83
15.0679,2664.63
15.1339,2622.02
15.1999,2607.711
15.2659,2612.97
15.3319,2588.09
15.3979,2405.42
15.4639,2455.39
15.5299,2454.42
15.5959,2443.16
15.6619,2370.5
15.7279,2488.96
15.7939,2609.87
15.8599,2665.57
15.9259,2571.74
15.9919,2539.08
16.0579,2451.57
16.1239,2624.81
16.1899,2420.06
16.2559,2314.81
16.3219,2378.81
16.3879,2385.86
16.4539,2308.14
16.5199,2274.95
16.5859,2303.01
16.6519,2230.438
16.7179,2245.28
16.7839,2201.82
16.8499,2256.35
16.9159,2214.82
16.9819,2220.76
17.0479,2244.66
17.1139,2299.5
17.1799,2155.646
17.2459,2178.21
17.3119,2184.64
17.3779,2245.57
17.4439,2203.78
17.5099,2278.35
17.5759,2153.49
17.6419,2233.25
17.7079,2156.78
17.7739,2134.16
17.8399,2148.37
17.9059,2184.13
17.9719,2063.11
18.0379,2114.95
18.1039,2132.01
18.1699,2160.71
18.2359,2107.72
18.3019,2100.34
18.3679,2132.25
18.4339,2196.73
18.4999,2073.7
18.5659,2083.587
18.6319,2023.52
18.6979,2068.67
18.7639,2060.91
18.8299,2041.42
18.8959,2076.69
18.9619,2069.19
19.0279,2032.69
19.0939,2026.593
19.1599,2072.05
19.2259,2027.46
19.2919,2033.69
19.3579,2058.826
19.4239,2051.08
19.4899,2015.95
19.5559,2069.99
19.6219,2034.15
19.6879,2021.54
19.7539,2036.86
19.8199,1864.77
19.8859,2004.8
19.9519,2002.88
20.0179,2088.64
20.0839,2125.05
20.1499,2049.16
20.2159,2046.68
20.2819,2115.88
20.3479,2059.77
20.4139,2074.13
20.4799,2107.401
20.5459,2156.81
20.6119,2292.52
20.6779,2297.38
20.7439,2152.67
20.8099,2013.78
20.8759,2080.714
20.9419,2099.68
21.0079,2130.72
21.0739,2068.09
21.1399,2083.19
21.2059,2048.35
21.2719,1997.95
21.3379,2061.71
21.4039,2025.19
21.4699,1962.3
21.5359,1996.4
21.6019,1992.12
21.6679,1946.35
21.7339,2058.876
21.7999,2089.75
21.8659,2019.67
21.9319,2172.59
21.9979,2087.5
22.0639,2101.71
22.1299,2050.04
22.1959,1985.916
22.2619,2031.04
22.3279,2105.18
22.3939,2079.12
22.4599,2151.733
22.5259,2182.38
22.5919,2242.52
22.6579,2305.62
22.7239,2421.58
22.7899,2580.7
22.8559,2725.6
22.9219,3041.57
22.9879,3377.19
23.0539,3680.78
23.1199,3940.29
23.1859,3823.31
23.2519,3590.85
23.3179,3494.79
23.3839,3459.6
23.4499,3386.67
23.5159,3368.26
23.5819,3359.28
23.6479,3319.91
23.7139,3305.05
23.7799,3450.83
23.8459,3337.8
23.9119,3363.11
23.9779,3532.14
24.0439,3984.42
24.1099,4890.93
24.1759,8342.11
24.2419,19263
24.3079,14324.3
24.3739,4950.79
24.4399,3809.42
24.5059,3682.01
24.5719,3487.96
24.6379,3555.55
24.7039,3586.27
24.7699,3440.85
24.8359,3282.566
24.9019,3290.6
24.9679,3060.28
25.0339,3021.93
25.0999,2834.41
25.1659,2873.124
25.2319,2804.36
25.2979,2788.91
25.3639,2723.376
25.4299,2701.94
25.4959,2736.8
25.5619,3235.21
25.6279,3686.44
25.6939,3159.04
25.7599,2626.19
25.8259,2580.79
25.8919,2568.27
25.9579,2580.92
26.0239,2553
26.0899,2473.95
26.1559,2411
26.2219,2394.56
26.2879,2428.59
26.3539,2428.09
26.4199,2386.25
26.4859,2434.78
26.5519,2341.1
26.6179,2437.49
26.6839,2491.205
26.7499,2506.24
26.8159,2781.34
26.8819,2860.885
26.9479,2568.06
27.0139,2413.88
27.0799,2255.29
27.1459,2296.58
27.2119,2341.01
27.2779,2380.58
27.3439,2539.37
27.4099,2815.24
27.4759,2759.99
27.5419,2490.96
27.6079,2274.24
27.6739,2258.49
27.7399,2344.07
27.8059,2370.07
27.8719,2378.82
27.9379,2532.94
28.0039,3055.25
28.0699,2899.5
28.1359,2591.99
28.2019,2606.54
28.2679,2765.97
28.3339,2578.522
28.3999,2444.202
28.4659,2499.86
28.5319,2444.14
28.5979,2537.21
28.6639,2637.5
28.7299,2759.65
28.7959,3007.9
28.8619,3258.92
28.9279,3663.32
28.9939,3672.46
29.0599,3336.49
29.1259,3195.34
29.1919,2860.26
29.2579,2817.31
29.3239,2782.79
29.3899,2742.85
29.4559,2763.63
29.5219,2720.45
29.5879,2709.29
29.6539,2818.52
29.7199,4431.08
29.7859,3521.02
29.8519,2582.84
29.9179,2435.81
29.9839,2282.18
30.0499,2287.66
30.1159,2152.07
30.1819,2198.51
30.2479,2254
30.3139,2260.5
30.3799,2443.52
30.4459,2520.26
30.5119,2748.82
30.5779,2897.92
30.6439,3123.509
30.7099,3519.337
30.7759,4429.8
30.8419,6367.02
30.9079,13183.4
30.9739,38061.2
31.0399,71637.6
31.1059,34808
31.1719,6824.53
31.2379,4258.03
31.3039,3472.07
31.3699,3163.46
31.4359,2884.4
31.5019,3076.6
31.5679,3077.13
31.6339,2602.34
31.6999,2362.9
31.7659,2354.52
31.8319,2655.2
31.8979,3358.81
31.9639,5610.44
32.0299,4891.98
32.0959,3166.34
32.1619,2336.84
32.2279,2303.49
32.2939,2670.46
32.3599,2749.26
32.4259,2788.81
32.4919,3944.07
32.5579,5074.35
32.6239,4598
32.6899,3107
32.7559,2270.58
32.8219,2182.64
32.8879,2155.73
32.9539,2318.08
33.0199,2126.74
33.0859,1983.67
33.1519,1864.97
33.2179,1800.29
33.2839,1909.04
33.3499,1863.63
33.4159,1789.41
33.4819,1766.84
33.5479,1757.05
33.6139,1779
33.6799,1769.48
33.7459,1753.21
33.8119,1795.279
33.8779,1765.42
33.9439,1772.28
34.0099,1795.65
34.0759,1871.89
34.1419,2032.92
34.2079,2558.43
34.2739,3545.1
34.3399,3661.3
34.4059,3081.44
34.4719,2405.225
34.5379,2087.24
34.6039,1970.8
34.6699,1854.2
34.7359,1890.67
34.8019,1904.41
34.8679,1837
34.9339,1723.28
34.9999,1743.9
35.0659,1808.8
35.1319,1809.2
35.1979,1798.24
35.2639,1746.75
35.3299,1770.13
35.3959,1741.702
35.4619,1791.29
35.5279,1884.02
35.5939,1802.28
35.6599,1719.52
35.7259,1677.08
35.7919,1685.04
35.8579,1698
35.9239,1680.46
35.9899,1731.35
36.0559,1567.73
36.1219,1634.01
36.1879,1535.57
36.2539,1589.45
36.3199,1582.544
36.3859,1610.04
36.4519,1719.69
36.5179,1654.42
36.5839,1624.6
36.6499,1582.48
36.7159,1618.8
36.7819,1559.454
36.8479,1530.75
36.9139,1588.537
36.9799,1502.47
37.0459,1516.1
37.1119,1475.64
37.1779,1433.68
37.2439,1490.44
37.3099,1556.99
37.3759,1556.34
37.4419,1639.08
37.5079,1510.15
37.5739,1501.89
37.6399,1482.28
37.7059,1489.15
37.7719,1479.25
37.8379,1534.04
37.9039,1511.24
37.9699,1425.21
38.0359,1458.32
38.1019,1473.22
38.1679,1490.12
38.2339,1461.81
38.2999,1465.23
38.3659,1460.89
38.4319,1465.49
38.4979,1524.19
38.5639,1595.11
38.6299,1511.35
38.6959,1576.059
38.7619,1599.83
38.8279,1647.72
38.8939,1560.37
38.9599,1555.49
39.0259,1541.46
39.0919,1508.92
39.1579,1520.339
39.2239,1473.37
39.2899,1439.519
39.3559,1439.38
39.4219,1428.469
39.4879,1459.01
39.5539,1475.94
39.6199,1507.49
39.6859,1369.608
39.7519,1488.494
39.8179,1481.99
39.8839,1530.13
39.9499,1594.37
40.0159,1574.19
40.0819,1553.8
40.1479,1647.76
40.2139,1570.51
40.2799,1654.46
40.3459,1758.295
40.4119,1832.354
40.4779,1790.43
40.5439,1954
40.6099,1975.13
40.6759,2073.33
40.7419,2244.29
40.8079,2290.63
40.8739,2475.02
40.9399,2254.42
41.0059,2134.54
41.0719,2179.33
41.1379,2202.31
41.2039,2353.85
41.2699,2290.767
41.3359,2142.786
41.4019,2023.13
41.4679,1974.56
41.5339,1978.75
41.5999,1957.81
41.6659,2069.7
41.7319,2037.87
41.7979,2018.67
41.8639,2106.59
41.9299,2127.63
41.9959,2221
42.0619,2317.05
42.1279,2220.18
42.1939,2052.25
42.2599,1956.62
42.3259,1969.71
42.3919,1956.56
42.4579,1971.78
42.5239,2137.32
42.5899,2626.18
42.6559,5209.77
42.7219,5860.15
42.7879,4417.78
42.8539,2572.11
42.9199,2072.11
42.9859,2080.14
43.0519,2046.037
43.1179,1995.4
43.1839,1947.55
43.2499,1865.74
43.3159,1768.52
43.3819,1746.57
43.4479,1702.52
43.5139,1678.63
43.5799,1633.398
43.6459,1721.115
43.7119,1722.286
43.7779,1699.59
43.8439,1735.09
43.9099,1690.28
43.9759,1793.23
44.0419,1757.63
44.1079,1888.77
44.1739,1865.74
44.2399,1860.12
44.3059,1760.91
44.3719,1730.46
44.4379,1700.97
44.5039,1770.25
44.5699,1747.36
44.6359,1734.98
44.7019,1873.21
44.7679,1844.77
44.8339,1896.89
44.8999,1876.49
44.9659,1955.38
45.0319,1979.19
45.0979,1861.32
45.1639,1737.87
45.2299,1756.3
45.2959,1648.83
45.3619,1660.6
45.4279,1653.53
45.4939,1632.25
45.5599,1627.82
45.6259,1545.1
45.6919,1596.506
45.7579,1617.81
45.8239,1696.17
45.8899,1721.32
45.9559,1723.73
46.0219,1965.28
46.0879,3199.84
46.1539,5751.79
46.2199,3785.79
46.2859,3280.43
46.3519,1706.96
46.4179,1571.32
46.4839,1524.44
46.5499,1448.991
46.6159,1513.475
46.6819,1486.52
46.7479,1340.65
46.8139,1563.6
46.8799,1551.86
46.9459,1573.16
47.0119,1689.8
47.0779,2418.229
47.1439,3581.91
47.2099,2416.31
47.2759,2036.97
47.3419,1501.25
47.4079,1410.61
47.4739,1385.4
47.5399,1361.25
47.6059,1368.55
47.6719,1355.81
47.7379,1343.58
47.8039,1373.19
47.8699,1426.19
47.9359,1357.72
48.0019,1410.74
48.0679,1447.84
48.1339,1362.6
48.1999,1432.24
48.2659,1476.295
48.3319,1466.752
48.3979,1380.13
48.4639,1391.696
48.5299,1299
48.5959,1360.56
48.6619,1434.04
48.7279,1341.43
48.7939,1351.63
48.8599,1425.6
48.9259,1430.43
48.9919,1403.58
49.0579,1423.52
49.1239,1348.93
49.1899,1366.79
49.2559,1282.06
49.3219,1305.6
49.3879,1256.55
49.4539,1333.39
49.5199,1370.19
49.5859,1664.74
49.6519,3145.005
49.7179,4384.71
49.7839,2976.12
49.8499,2424.97
49.9159,1506.38
49.9819,1381.11
50.0479,1308.47
50.1139,1310.54
50.1799,1277.55
50.2459,1235.63
50.3119,1254.73
50.3779,1197.94
50.4439,1181.85
50.5099,1245.21
50.5759,1309.73
50.6419,1376.658
50.7079,1320.07
50.7739,1378.54
50.8399,1286.55
50.9059,1242.61
50.9719,1279.73
51.0379,1219.15
51.1039,1166.59
51.1699,1164.156
51.2359,1128.5
51.3019,1182.44
51.3679,1101.01
51.4339,1178.76
51.4999,1160.19
51.5659,1160.43
51.6319,1165.361
51.6979,1139
51.7639,1192.76
51.8299,1188.82
51.8959,1213.29
51.9619,1108.64
52.0279,1134.91
52.0939,1163.53
52.1599,1121.47
52.2259,1159.49
52.2919,1178.9
52.3579,1222.31
52.4239,1118.14
52.4899,1204.982
52.5559,1140.5
52.6219,1179.55
52.6879,1184.42
52.7539,1180.596
52.8199,1197.4
52.8859,1255.08
52.9519,1269.19
53.0179,1233.32
53.0839,1317.05
53.1499,1306.22
53.2159,1311.472
53.2819,1442.35
53.3479,1449.01
53.4139,1438.48
53.4799,1354.06
53.5459,1455.49
53.6119,1844.66
53.6779,3324.14
53.7439,3236.76
53.8099,2622.957
53.8759,1996.54
53.9419,1355.395
54.0079,1217.57
54.0739,1152.14
54.1399,1181.88
54.2059,1209.56
54.2719,1190.94
54.3379,1190.16
54.4039,1196.69
54.4699,1136.55
54.5359,1172.74
54.6019,1136.469
54.6679,1088.66
54.7339,1161.38
54.7999,1171.96
54.8659,1140.68
54.9319,1168.88
54.9979,1205.04
55.0639,1172.45
55.1299,1195.95
55.1959,1223.96
55.2619,1417.12
55.3279,1473.22
55.3939,1370.68
55.4599,1323.15
55.5259,1235.96
55.5919,1185.62
55.6579,1252.35
55.7239,1366.94
55.7899,1381.47
55.8559,1409.3
55.9219,1407.42
55.9879,1398.67
56.0539,1318.47
56.1199,1236.06
56.1859,1181.18
56.2519,1228.75
56.3179,1192.37
56.3839,1234.733
56.4499,1319.06
56.5159,1242.54
56.5819,1268.66
56.6479,1262.8
56.7139,1226.18
56.7799,1216.17
56.8459,1161.575
56.9119,1195.17
56.9779,1238.76
57.0439,1266.27
57.1099,1337.75
57.1759,1288.4
57.2419,1205.93
57.3079,1168.15
57.3739,1158.36
57.4399,1189.77
57.5059,1175
57.5719,1145.24
57.6379,1122.69
57.7039,1137.61
57.7699,1098.81
57.8359,1080.54
57.9019,1153.43
57.9679,1129.83
58.0339,1072.53
58.0999,1101.44
58.1659,1102.25
58.2319,1078.69
58.2979,1051.88
58.3639,1100.95
58.4299,1140.13
58.4959,1226.78
58.5619,1253.68
58.6279,1311.25
58.6939,1329.04
58.7599,1482.84
58.8259,2325.29
58.8919,6740.21
58.9579,8445.48
59.0239,4571.62
59.0899,5091.48
59.1559,1898.4
59.2219,1390.37
59.2879,1280.05
59.3539,1190.74
59.4199,1256.51
59.4859,1332.79
59.5519,1279.79
59.6179,1242.32
59.6839,1157.48
59.7499,1093.76
59.8159,1071.77
59.8819,1088.425
59.9479,1119.48
60.0139,1105.6
60.0799,1054.79
60.1459,1115.4
60.2119,1117.22
60.2779,1068.66
60.3439,1060.8
60.4099,1047.655
60.4759,1033.97
60.5419,1027.73
60.6079,993.3229
60.6739,1006.78
60.7399,958.7539
60.8059,942.7962
60.8719,997.9633
60.9379,972.1207
61.0039,903.7123
61.0699,930.2775
61.1359,962.4011
61.2019,988.0267
61.2679,1011.47
61.3339,1007.39
61.3999,1007.867
61.4659,985.2828
61.5319,1122.64
61.5979,1040.34
61.6639,1029.54
61.7299,1028.88
61.7959,960.5798
61.8619,1014.38
61.9279,1019.22
61.9939,1012.57
62.0599,1041.24
62.1259,1018.57
62.1919,1016.51
62.2579,1019.63
62.3239,1044.05
62.3899,1016.34
62.4559,1043.879
62.5219,1060.04
62.5879,1079.17
62.6539,1167.34
62.7199,1186.04
62.7859,1122.991
62.8519,1188.98
62.9179,1131.22
62.9839,1189.73
63.0499,1115.242
63.1159,1199.93
63.1819,1149.07
63.2479,1136.54
63.3139,1122.35
63.3799,1127.59
63.4459,1131.33
63.5119,1097.14
63.5779,1143.62
63.6439,1210.31
63.7099,1105.08
63.7759,1172.81
63.8419,1186.699
63.9079,1200.23
63.9739,1219.78
64.0399,1244.24
64.1059,1246.342
64.1719,1236.47
64.2379,1230.67
64.3039,1233.01
64.3699,1215.87
64.4359,1195.97
64.5019,1254.76
64.5679,1489.7
64.6339,2179.984
64.6999,3003.33
64.7659,1962.28
64.8319,2120.89
64.8979,1576.64
64.9639,1373.38
65.0299,1292.7
65.0959,1319.8
65.1619,1481.66
65.2279,1775.29
65.2939,1457.66
65.3599,1456.7
65.4259,1354.87
65.4919,1192.59
65.5579,1134.22
65.6239,1129.35
65.6899,1160.43
65.7559,1134.37
65.8219,1102.07
65.8879,1093.86
65.9539,1119.832
66.0199,1087.63
66.0859,1076.61
66.1519,1121.61
66.2179,1161.34
66.2839,1094
66.3499,1097.48
66.4159,1040.44
66.4819,1101.85
66.5479,1080.22
66.6139,1030.717
66.6799,1093.45
66.7459,1138.51
66.8119,1121.127
66.8779,1061.47
66.9439,1075.49
67.0099,1074.15
67.0759,1080.991
67.1419,1035.09
67.2079,1017.76
67.2739,1034.38
67.3399,1027.25
67.4059,1024.27
67.4719,1021.478
67.5379,1106.53
67.6039,1086.38
67.6699,1101.13
67.7359,1144.79
67.8019,1080.8
67.8679,1112.94
67.9339,1085.93
67.9999,1090.37
68.0659,1041.01
68.1319,1062.57
68.1979,983.1204
68.2639,1030.42
68.3299,956.8323
68.3959,940.3082
68.4619,988.9583
68.5279,989.7828
68.5939,994.54
68.6599,984.8126
68.7259,986.3447
68.7919,998.1576
68.8579,1016.07
68.9239,1038.93
68.9899,978.183
69.0559,969.9733
69.1219,956.8145
69.1879,985.5326
69.2539,1022.37
69.3199,975.7612
69.3859,986.2923
69.4519,978.9916
69.5179,999.5395
69.5839,980.4214
69.6499,1007.17
69.7159,1004.69
69.7819,1033.068
69.8479,1021.42
69.9139,1024.42
69.9799,1044.335
70.0459,1031.91
70.1119,1076.25
70.1779,1017.224
70.2439,1074.43
70.3099,1073.8
70.3759,1090.37
70.4419,1095.82
70.5079,1135.637
70.5739,1146
70.6399,1156.36
70.7059,1123.75
70.7719,1392.55
70.8379,2673.56
70.9039,6100.01
70.9699,4507.64
71.0359,2918.42
71.1019,3799.54
71.1679,2038.92
71.2339,1264.98
71.2999,1123.02
71.3659,1050.63
71.4319,1043.975
71.4979,994.0882
71.5639,969.8377
71.6299,986.7373
71.6959,1066.15
71.7619,1016.14
71.8279,1028.44
71.8939,1060.89
71.9599,1018.99
72.0259,1074.85
72.0919,1045.63
72.1579,1022.26
72.2239,1055.12
72.2899,1088.3
72.3559,1088.79
72.4219,1028.56
72.4879,1075.2
72.5539,1016.918
72.6199,1063.86
72.6859,1029.44
72.7519,1109.571
72.8179,1144.708
72.8839,1106.55
72.9499,1121.72
73.0159,1167.52
73.0819,1164.73
73.1479,1170.39
73.2139,1202.89
73.2799,1216.51
73.3459,1192.09
73.4119,1271.3
73.4779,1208.1
73.5439,1270.5
73.6099,1254.543
73.6759,1359.56
73.7419,1360.43
73.8079,1438.43
73.8739,1354.1
73.9399,1355.7
74.0059,1282.62
74.0719,1220.25
74.1379,1145.44
74.2039,1153.83
74.2699,1165.46
74.3359,1076.07
74.4019,1107.91
74.4679,1068.82
74.5339,1047.3
74.5999,1040.44
74.6659,1050.23
74.7319,973.3362
74.7979,969.2657
74.8639,1051.99
74.9299,995.7902
74.9959,1002.53
75.0619,1044.68
75.1279,1026.66
75.1939,973.0769
75.2599,974.6682
75.3259,1001.76
75.3919,959.3174
75.4579,987.177
75.5239,1039.76
75.5899,1013.422
75.6559,1063.66
75.7219,1048.4
75.7879,1106.29
75.8539,1237.09
75.9199,1555.247
75.9859,2979.35
76.0519,1891.32
76.1179,1475.08
76.1839,1991.24
76.2499,1439.63
76.3159,1019.97
76.3819,1021.73
76.4479,957.6238
76.5139,954.8524
76.5799,957.0665
76.6459,956.0978
76.7119,971.6906
76.7779,953.2183
76.8439,956.6987
76.9099,1014.82
76.9759,982.9234
77.0419,931.69
77.1079,953.1357
77.1739,963.0355
77.2399,981.5704
77.3059,922.0738
77.3719,932.4765
77.4379,982.6901
77.5039,945.2536
77.5699,928.3274
77.6359,904.3099
77.7019,906.6371
77.7679,903.7496
77.8339,883.2036
77.8999,943.4864
77.9659,928.4187
78.0319,937.0354
78.0979,974.1356
78.1639,1051.79
78.2299,1017.5
78.2959,937.3364
78.3619,1013
78.4279,965.0128
78.4939,926.8171
78.5599,910.3362
78.6259,894.0351
78.6919,869.2991
78.7579,932.611
78.8239,991.6547
78.8899,960.7668
78.9559,1024.85
79.0219,912.2478
79.0879,983.0128
79.1539,930.5248
79.2199,927.0482
79.2859,887.4014
79.3519,936.9347
79.4179,919.9294
79.4839,967.9556
79.5499,975.7844
79.6159,910.8982
79.6819,956.7669
79.7479,961.9748