File: RP-XRD-S2-2022/Sample_01.csv
Pos. [°2?],Intensity [Counts]
6.9279,6219.51
6.9939,6037.56
7.0599,6116.54
7.1259,6150.03
7.1919,5965.45
7.2579,6036.26
7.3239,5978.3
7.3899,5766.26
7.4559,5831.05
7.5219,5796.55
7.5879,5832.68
7.6539,5787.25
7.7199,5727.39
7.7859,5714.057
7.8519,5755.7
7.9179,5728.69
7.9839,5657.52
8.0499,5575.85
8.1159,5576.63
8.1819,5610.49
8.2479,5652.3
8.3139,5517.98
8.3799,5655.28
8.4459,5497.33
8.5119,5468.72
8.5779,5439.91
8.6439,5478.06
8.7099,5473.16
8.7759,5547.62
8.8419,5445.16
8.9079,5351.47
8.9739,5343.99
9.0399,5245.75
9.1059,5336.51
9.1719,5215.39
9.2379,5429.22
9.3039,5448.38
9.3699,5400.71
9.4359,5333.47
9.5019,5327.63
9.5679,5358
9.6339,5214.942
9.6999,5192.8
9.7659,5410.4
9.8319,5210.18
9.8979,5274.42
9.9639,5298.53
10.0299,5235.98
10.0959,5209.95
10.1619,5329.71
10.2279,5311.86
10.2939,5344.11
10.3599,5307.65
10.4259,5256.99
10.4919,5088.5
10.5579,5156.14
10.6239,5056.64
10.6899,5169.89
10.7559,5211.83
10.8219,5061.65
10.8879,5049.41
10.9539,5068.92
11.0199,5192.24
11.0859,5095.29
11.1519,5196.14
11.2179,5065.87
11.2839,5220.77
11.3499,5044.4
11.4159,4983.45
11.4819,5041.9
11.5479,5084.31
11.6139,4979.67
11.6799,4899.29
11.7459,5032.77
11.8119,5045.11
11.8779,4913.38
11.9439,5022.4
12.0099,5122.005
12.0759,5100.01
12.1419,5215.7
12.2079,5153.33
12.2739,5045.04
12.3399,5020.1
12.4059,4973.18
12.4719,4930.298
12.5379,4997.28
12.6039,4990.14
12.6699,4990.17
12.7359,4854.29
12.8019,5018.01
12.8679,5116.19
12.9339,5089.526
12.9999,4898.44
13.0659,5164.93
13.1319,5138.91
13.1979,5044.68
13.2639,5202.38
13.3299,5063.92
13.3959,5139.34
13.4619,5133.56
13.5279,5121.54
13.5939,5020.3
13.6599,5149.49
13.7259,5127.11
13.7919,5075.7
13.8579,5127.21
13.9239,5188.05
13.9899,5255.114
14.0559,5201.95
14.1219,5281.22
14.1879,5411.51
14.2539,5539.85
14.3199,5475.32
14.3859,5542.61
14.4519,5564.58
14.5179,5365.31
14.5839,5478.89
14.6499,5142.21
14.7159,5076.624
14.7819,5072.95
14.8479,4971.888
14.9139,5013.31
14.9799,5045.23
15.0459,5104.91
15.1119,5046.34
15.1779,5012.03
15.2439,5051.87
15.3099,5060.02
15.3759,4977.39
15.4419,5020.86
15.5079,5056.31
15.5739,5026.43
15.6399,5019.24
15.7059,5084.84
15.7719,5142.83
15.8379,5111.73
15.9039,5108.05
15.9699,5088.96
16.0359,5113.62
16.1019,5112.96
16.1679,5250.78
16.2339,5261.69
16.2999,5101.43
16.3659,5190.06
16.4319,5102.036
16.4979,5193.4
16.5639,5303.37
16.6299,5207.238
16.6959,5288.61
16.7619,5290.85
16.8279,5134.35
16.8939,5309.13
16.9599,5265.56
17.0259,5326.92
17.0919,5369.72
17.1579,5457.38
17.2239,5593.81
17.2899,5713.078
17.3559,5725.44
17.4219,5630.32
17.4879,5320.56
17.5539,5404.78
17.6199,5383.18
17.6859,5429.57
17.7519,5493.53
17.8179,5354.29
17.8839,5370.943
17.9499,5362.19
18.0159,5166.63
18.0819,5403.416
18.1479,5267.84
18.2139,5350.875
18.2799,5342.41
18.3459,5240.25
18.4119,5334.41
18.4779,5379.58
18.5439,5269.76
18.6099,5262.53
18.6759,5334.44
18.7419,5364.19
18.8079,5325.73
18.8739,5228.52
18.9399,5265.19
19.0059,5329.91
19.0719,5339.84
19.1379,5233.56
19.2039,5313.86
19.2699,5275.07
19.3359,5254.89
19.4019,5247.32
19.4679,5278.59
19.5339,5256.02
19.5999,5220.97
19.6659,5239.87
19.7319,5360.08
19.7979,5214.03
19.8639,5231.5
19.9299,5286.89
19.9959,5262.649
20.0619,5292.6
20.1279,5268.07
20.1939,5360.31
20.2599,5322.55
20.3259,5351.812
20.3919,5274.3
20.4579,5222.99
20.5239,5151.58
20.5899,5301.96
20.6559,5264.69
20.7219,5225.91
20.7879,5279.54
20.8539,5189.44
20.9199,5373.09
20.9859,5183.12
21.0519,5312.92
21.1179,5292.3
21.1839,5510.44
21.2499,5524.123
21.3159,5345.45
21.3819,5298.66
21.4479,5298.63
21.5139,5268.66
21.5799,5313.91
21.6459,5294.04
21.7119,5184.91
21.7779,5291
21.8439,5349
21.9099,5419.58
21.9759,5249.31
22.0419,5282.63
22.1079,5264.14
22.1739,5220.6
22.2399,5254.39
22.3059,5378.169
22.3719,5430.63
22.4379,5330.78
22.5039,5437.3
22.5699,5445.8
22.6359,5423.725
22.7019,5502.1
22.7679,5543.07
22.8339,5570.81
22.8999,5772.14
22.9659,5789.301
23.0319,5760.98
23.0979,5834.13
23.1639,5922.33
23.2299,5885.42
23.2959,5810.28
23.3619,5846.5
23.4279,5836.638
23.4939,5747
23.5599,5755.57
23.6259,5761.06
23.6919,5903.83
23.7579,5910.8
23.8239,5920.04
23.8899,6011.49
23.9559,6079.76
24.0219,6229.62
24.0879,6660.6
24.1539,7518.91
24.2199,8917.09
24.2859,8890.83
24.3519,7067.48
24.4179,6089.95
24.4839,6106.69
24.5499,6001.74
24.6159,6001.6
24.6819,5891.41
24.7479,5922.57
24.8139,6009.99
24.8799,5903.51
24.9459,5907.6
25.0119,5952.63
25.0779,5898.26
25.1439,5958.14
25.2099,5933.778
25.2759,5944.64
25.3419,5898.05
25.4079,5936.44
25.4739,5942.97
25.5399,5896.77
25.6059,5981.57
25.6719,5865.112
25.7379,5794.186
25.8039,5622.84
25.8699,5626.95
25.9359,5768.05
26.0019,5652.71
26.0679,5627.74
26.1339,5497.43
26.1999,5531.36
26.2659,5475.9
26.3319,5571.31
26.3979,5477.32
26.4639,5490.15
26.5299,5295.02
26.5959,5431.71
26.6619,5305.26
26.7279,5286.05
26.7939,5281.73
26.8599,5324.69
26.9259,5336.49
26.9919,5251.5
27.0579,5180.85
27.1239,5129.27
27.1899,5027.302
27.2559,5025.25
27.3219,5027.85
27.3879,5124.52
27.4539,5162.02
27.5199,4985.732
27.5859,4822.832
27.6519,4915.45
27.7179,4811.23
27.7839,4939.75
27.8499,5021.59
27.9159,5039.43
27.9819,4964.117
28.0479,4870.97
28.1139,4886.83
28.1799,4742.691
28.2459,5040.76
28.3119,5029.32
28.3779,5327.19
28.4439,4926.23
28.5099,4681.637
28.5759,4508.22
28.6419,4474.89
28.7079,4499.51
28.7739,4525.4
28.8399,4793.88
28.9059,4574.18
28.9719,4587.7
29.0379,4410.81
29.1039,4432.76
29.1699,4428.91
29.2359,4487.8
29.3019,4368.39
29.3679,4450.96
29.4339,4313.45
29.4999,4442.679
29.5659,4362.37
29.6319,4289.64
29.6979,4320.32
29.7639,4270.63
29.8299,4282
29.8959,4115.28
29.9619,4110.4
30.0279,4078.94
30.0939,4026.51
30.1599,4075.52
30.2259,3941.05
30.2919,4011.08
30.3579,4092.48
30.4239,4211.61
30.4899,4296.92
30.5559,4372.57
30.6219,4458.1
30.6879,4915.7
30.7539,5868.33
30.8199,6606.7
30.8859,8424.303
30.9519,12623.1
31.0179,17873.3
31.0839,12976.4
31.1499,6388.66
31.2159,4589.77
31.2819,4353.37
31.3479,4181.96
31.4139,4084.869
31.4799,4113.29
31.5459,4144.12
31.6119,4141.46
31.6779,3937.68
31.7439,3914.05
31.8099,3918
31.8759,4206.133
31.9419,4380.17
32.0079,4412.22
32.0739,4184.18
32.1399,4017.69
32.2059,3899.28
32.2719,3882.18
32.3379,4022.878
32.4039,4242.14
32.4699,4608.96
32.5359,4719.6
32.6019,4455.88
32.6679,4222.08
32.7339,4023.3
32.7999,3864.93
32.8659,3824.103
32.9319,3697.14
32.9979,3716.58
33.0639,3744.11
33.1299,3537.19
33.1959,3698.88
33.2619,3503.339
33.3279,3543.12
33.3939,3429.21
33.4599,3393.421
33.5259,3483.7
33.5919,3452.51
33.6579,3403.71
33.7239,3474.06
33.7899,3448.18
33.8559,3389.78
33.9219,3395.65
33.9879,3368.32
34.0539,3407.47
34.1199,3413.27
34.1859,3385.28
34.2519,3553.16
34.3179,3328.88
34.3839,3505.176
34.4499,3456.7
34.5159,3361.39
34.5819,3352.43
34.6479,3428.19
34.7139,3400.59
34.7799,3358.68
34.8459,3324.98
34.9119,3426.85
34.9779,3459.56
35.0439,3486.97
35.1099,3632.83
35.1759,3540.65
35.2419,3514.58
35.3079,3486.38
35.3739,3325.85
35.4399,3296.81
35.5059,3292.47
35.5719,3384.39
35.6379,3297
35.7039,3300.858
35.7699,3255.31
35.8359,3159.94
35.9019,3239.28
35.9679,3265.84
36.0339,3253.93
36.0999,3191.94
36.1659,3139.61
36.2319,3155.94
36.2979,3162.29
36.3639,3208.33
36.4299,3411.44
36.4959,3416.76
36.5619,3349.38
36.6279,3160.83
36.6939,3204
36.7599,3165.3
36.8259,3057.85
36.8919,3093.01
36.9579,3125.37
37.0239,3113.84
37.0899,3085
37.1559,3011.18
37.2219,3067.46
37.2879,3092.88
37.3539,2975.73
37.4199,3011.41
37.4859,3056.66
37.5519,3009.06
37.6179,2985.683
37.6839,3044.86
37.7499,3069.54
37.8159,3135.27
37.8819,3053.1
37.9479,2986.088
38.0139,2951.36
38.0799,3110.04
38.1459,2996.12
38.2119,2996.935
38.2779,2999.37
38.3439,3088.85
38.4099,2988.53
38.4759,2990.74
38.5419,3033.54
38.6079,3036.322
38.6739,3032.17
38.7399,3013.95
38.8059,2972.58
38.8719,2975.015
38.9379,2897.227
39.0039,2970.52
39.0699,3004.58
39.1359,2959.68
39.2019,2941.41
39.2679,2918.57
39.3339,2913.53
39.3999,3035.9
39.4659,3001
39.5319,2928.81
39.5979,3050.24
39.6639,3003.14
39.7299,2956.69
39.7959,2982.88
39.8619,3020.67
39.9279,3026.75
39.9939,2966.1
40.0599,3043.34
40.1259,2978.99
40.1919,3034.26
40.2579,3040.19
40.3239,3065.89
40.3899,3101.169
40.4559,3166.05
40.5219,3267.33
40.5879,3205.19
40.6539,3197.79
40.7199,3241.6
40.7859,3277.64
40.8519,3244.76
40.9179,3207.36
40.9839,3160.88
41.0499,3191.25
41.1159,3037.34
41.1819,3117.74
41.2479,3065.57
41.3139,3096.3
41.3799,3231.86
41.4459,3092.34
41.5119,3083.53
41.5779,3162.7
41.6439,2989.72
41.7099,3099.61
41.7759,3002.75
41.8419,3073.51
41.9079,3085.577
41.9739,3137.31
42.0399,3053.88
42.1059,3068.233
42.1719,3020.55
42.2379,2943.89
42.3039,2972.82
42.3699,3023.7
42.4359,3128.6
42.5019,3261.84
42.5679,3409.384
42.6339,3769.31
42.6999,3857.46
42.7659,3515.83
42.8319,3220.89
42.8979,3016.06
42.9639,3079.505
43.0299,2875.9
43.0959,3005.61
43.1619,2993.14
43.2279,2994.88
43.2939,2914.9
43.3599,2997.58
43.4259,2883.97
43.4919,2991.03
43.5579,2814.78
43.6239,2925.68
43.6899,2932.13
43.7559,3000.66
43.8219,2873.64
43.8879,2959.52
43.9539,2926.05
44.0199,2937.18
44.0859,2906.62
44.1519,2873.26
44.2179,2914.55
44.2839,2860.67
44.3499,2879.11
44.4159,2899.06
44.4819,2880.95
44.5479,3054.77
44.6139,3130.2
44.6799,3080.08
44.7459,3095.46
44.8119,2992.26
44.8779,2885.36
44.9439,3034.83
45.0099,2978.46
45.0759,2937.8
45.1419,2862.53
45.2079,2815.84
45.2739,2812.74
45.3399,2820.12
45.4059,2801.35
45.4719,2760.394
45.5379,2857.65
45.6039,2864.89
45.6699,2799.3
45.7359,2741.1
45.8019,2929.54
45.8679,2818.26
45.9339,2870.68
45.9999,2941.29
46.0659,3093.36
46.1319,3303.01
46.1979,3264.5
46.2639,3053.23
46.3299,2826.71
46.3959,2825.17
46.4619,2777.184
46.5279,2751.88
46.5939,2792.51
46.6599,2773.75
46.7259,2706.92
46.7919,2789.71
46.8579,2765.86
46.9239,2776.62
46.9899,2920.85
47.0559,2905.18
47.1219,3061.121
47.1879,3036.24
47.2539,2842.08
47.3199,2732.52
47.3859,2694.75
47.4519,2643.93
47.5179,2633.79
47.5839,2757.64
47.6499,2692.67
47.7159,2706.37
47.7819,2700.88
47.8479,2653.85
47.9139,2655.67
47.9799,2700.12
48.0459,2685.96
48.1119,2621.83
48.1779,2614.03
48.2439,2649.64
48.3099,2556.58
48.3759,2742.07
48.4419,2672.61
48.5079,2556.62
48.5739,2515.36
48.6399,2606.41
48.7059,2597.47
48.7719,2634.11
48.8379,2722.65
48.9039,2705.31
48.9699,2678.92
49.0359,2573.43
49.1019,2659.3
49.1679,2574.73
49.2339,2576.08
49.2999,2587.28
49.3659,2651.77
49.4319,2652.5
49.4979,2743.07
49.5639,2916.32
49.6299,3187.32
49.6959,3299.41
49.7619,3101.73
49.8279,2764.64
49.8939,2685.7
49.9599,2668.544
50.0259,2571.15
50.0919,2547.78
50.1579,2541.9
50.2239,2520.38
50.2899,2428.57
50.3559,2465.83
50.4219,2547.3
50.4879,2459.97
50.5539,2445.81
50.6199,2498.77
50.6859,2505.32
50.7519,2455.07
50.8179,2526.71
50.8839,2505.98
50.9499,2521.93
51.0159,2597.5
51.0819,2521.97
51.1479,2505.01
51.2139,2423.92
51.2799,2500.86
51.3459,2403.97
51.4119,2427.674
51.4779,2388.41
51.5439,2419.52
51.6099,2442.23
51.6759,2436.79
51.7419,2418.74
51.8079,2406.01
51.8739,2429.04
51.9399,2366.48
52.0059,2436.3
52.0719,2362.85
52.1379,2398.98
52.2039,2444.843
52.2699,2389.36
52.3359,2341.81
52.4019,2387.53
52.4679,2427.8
52.5339,2506.331
52.5999,2335.11
52.6659,2330.63
52.7319,2384.88
52.7979,2357.54
52.8639,2374.79
52.9299,2357.37
52.9959,2434.31
53.0619,2395.49
53.1279,2477.74
53.1939,2425.69
53.2599,2381.84
53.3259,2462.08
53.3919,2434.83
53.4579,2475.73
53.5239,2466.43
53.5899,2678.5
53.6559,2719.195
53.7219,2879.99
53.7879,2632.81
53.8539,2507.4
53.9199,2531.439
53.9859,2325.59
54.0519,2303.81
54.1179,2324
54.1839,2276.57
54.2499,2316.45
54.3159,2261.88
54.3819,2283.62
54.4479,2319.68
54.5139,2161.15
54.5799,2177.102
54.6459,2261
54.7119,2195.1
54.7779,2198.57
54.8439,2231.75
54.9099,2251.66
54.9759,2260.527
55.0419,2263.45
55.1079,2282.92
55.1739,2248.44
55.2399,2243.18
55.3059,2184
55.3719,2196.99
55.4379,2144.97
55.5039,2204.332
55.5699,2184.42
55.6359,2221.66
55.7019,2332.89
55.7679,2155.14
55.8339,2206.84
55.8999,2172.89
55.9659,2154.21
56.0319,2076.42
56.0979,2219.22
56.1639,2159.49
56.2299,2147.32
56.2959,2178.26
56.3619,2198.06
56.4279,2215.45
56.4939,2186.81
56.5599,2146.92
56.6259,2138.47
56.6919,2133.4
56.7579,2130.32
56.8239,2138.55
56.8899,2078.62
56.9559,2089.82
57.0219,2093.51
57.0879,2096
57.1539,2067.18
57.2199,2069.352
57.2859,2093.84
57.3519,2031.35
57.4179,2095
57.4839,2006.1
57.5499,2106.61
57.6159,2099.63
57.6819,2111.8
57.7479,2015.65
57.8139,2041.53
57.8799,2083.62
57.9459,2028.56
58.0119,2046.38
58.0779,2033.72
58.1439,2023.33
58.2099,1998.19
58.2759,1991.89
58.3419,2043.03
58.4079,2085.24
58.4739,2070.44
58.5399,2201.59
58.6059,2125.88
58.6719,2257.66
58.7379,2548.98
58.8039,2583.1
58.8699,2817.08
58.9359,2858.86
59.0019,2662.21
59.0679,2420.013
59.1339,2316.62
59.1999,2082.33
59.2659,2068.91
59.3319,2088.87
59.3979,2075.96
59.4639,2084.65
59.5299,2140.54
59.5959,2092.62
59.6619,2018.6
59.7279,1919.492
59.7939,1982.88
59.8599,2016.44
59.9259,2019.87
59.9919,1992.58
60.0579,1989
60.1239,1993.14
60.1899,1891.26
60.2559,1956.02
60.3219,1879.94
60.3879,1844.246
60.4539,1854.868
60.5199,1878.589
60.5859,1881.32
60.6519,1845.41
60.7179,1905.4
60.7839,1870.77
60.8499,1864.29
60.9159,1840.55
60.9819,1839.57
61.0479,1785.62
61.1139,1847.99
61.1799,1831.21
61.2459,1868.5
61.3119,1817.951
61.3779,1783.93
61.4439,1819.61
61.5099,1877.24
61.5759,1862.92
61.6419,1779.901
61.7079,1776.13
61.7739,1877.87
61.8399,1789.36
61.9059,1842.57
61.9719,1941.7
62.0379,1847.61
62.1039,1827.055
62.1699,1782.79
62.2359,1803.01
62.3019,1813.8
62.3679,1799.97
62.4339,1770.8
62.4999,1762.8
62.5659,1831.47
62.6319,1816.04
62.6979,1781.478
62.7639,1738.43
62.8299,1885.91
62.8959,1838.583
62.9619,1679.41
63.0279,1783.08
63.0939,1787.28
63.1599,1710.58
63.2259,1785.79
63.2919,1836.18
63.3579,1799.392
63.4239,1846.33
63.4899,1792
63.5559,1798.31
63.6219,1791.985
63.6879,1840.08
63.7539,1820.97
63.8199,1798.3
63.8859,1798.83
63.9519,1820.97
64.0179,1820.57
64.0839,1868.05
64.1499,1784.63
64.2159,1812.57
64.2819,1765.41
64.3479,1791.25
64.4139,1822.85
64.4799,1909.71
64.5459,2008.46
64.6119,2003.34
64.6779,2126.776
64.7439,1902.851
64.8099,1896.95
64.8759,1934.41
64.9419,1847.4
65.0079,1874.55
65.0739,1839.72
65.1399,1903.05
65.2059,1902.86
65.2719,1855.37
65.3379,1790.48
65.4039,1825.53
65.4699,1782.04
65.5359,1781.98
65.6019,1723.14
65.6679,1679.14
65.7339,1724.55
65.7999,1702.91
65.8659,1712.83
65.9319,1706.22
65.9979,1715.02
66.0639,1744.698
66.1299,1693.03
66.1959,1678.3
66.2619,1759.07
66.3279,1760.19
66.3939,1800.67
66.4599,1768.24
66.5259,1726.03
66.5919,1683.45
66.6579,1675.29
66.7239,1680.89
66.7899,1688.87
66.8559,1667.82
66.9219,1677.39
66.9879,1677.66
67.0539,1631.28
67.1199,1662.25
67.1859,1683.95
67.2519,1692.61
67.3179,1668.1
67.3839,1701.6
67.4499,1637.35
67.5159,1637.43
67.5819,1616.73
67.6479,1614.2
67.7139,1692.79
67.7799,1703.77
67.8459,1647.75
67.9119,1615.04
67.9779,1600.08
68.0439,1663.06
68.1099,1606.63
68.1759,1734.83
68.2419,1694.27
68.3079,1606.73
68.3739,1601.85
68.4399,1552.79
68.5059,1625.85
68.5719,1614.68
68.6379,1569.6
68.7039,1639.59
68.7699,1570.7
68.8359,1554.598
68.9019,1628.22
68.9679,1660.07
69.0339,1633.33
69.0999,1587.86
69.1659,1660.679
69.2319,1602.36
69.2979,1586.52
69.3639,1557.658
69.4299,1571.26
69.4959,1627.6
69.5619,1559.74
69.6279,1595.98
69.6939,1578.98
69.7599,1603.71
69.8259,1539.07
69.8919,1542.03
69.9579,1616.43
70.0239,1496.15
70.0899,1681.34
70.1559,1608.83
70.2219,1625.14
70.2879,1639.21
70.3539,1637.629
70.4199,1647.205
70.4859,1727.93
70.5519,1655.09
70.6179,1697.74
70.6839,1860.47
70.7499,1986.93
70.8159,2126.18
70.8819,2337.27
70.9479,2344.23
71.0139,2008.87
71.0799,1996.44
71.1459,1897.982
71.2119,1653.93
71.2779,1594.93
71.3439,1570.19
71.4099,1604.74
71.4759,1555.65
71.5419,1533.74
71.6079,1570.17
71.6739,1531.44
71.7399,1631.57
71.8059,1555.02
71.8719,1542.08
71.9379,1541.92
72.0039,1522.87
72.0699,1552.52
72.1359,1557.55
72.2019,1640.172
72.2679,1500.55
72.3339,1539.28
72.3999,1596.82
72.4659,1556.73
72.5319,1570.94
72.5979,1551.7
72.6639,1534.964
72.7299,1590.31
72.7959,1574.7
72.8619,1587.85
72.9279,1557.63
72.9939,1552.37
73.0599,1551.75
73.1259,1596.14
73.1919,1590.26
73.2579,1622.26
73.3239,1574.32
73.3899,1580.778
73.4559,1580.59
73.5219,1582.61
73.5879,1616.99
73.6539,1661.07
73.7199,1642.2
73.7859,1568.81
73.8519,1617.79
73.9179,1588.77
73.9839,1535.49
74.0499,1559.42
74.1159,1560.01
74.1819,1608.21
74.2479,1517.52
74.3139,1556.36
74.3799,1585.95
74.4459,1516
74.5119,1505.16
74.5779,1523.078
74.6439,1493.1
74.7099,1542.9
74.7759,1501.52
74.8419,1495
74.9079,1535.73
74.9739,1440.92
75.0399,1519.79
75.1059,1507.12
75.1719,1415.47
75.2379,1548.54
75.3039,1534.13
75.3699,1458.43
75.4359,1587.04
75.5019,1522.99
75.5679,1549.12
75.6339,1551.27
75.6999,1595.43
75.7659,1575.24
75.8319,1549.55
75.8979,1635.15
75.9639,1623.17
76.0299,1664.18
76.0959,1558.82
76.1619,1552.3
76.2279,1514.66
76.2939,1501.42
76.3599,1550.87
76.4259,1457.693
76.4919,1526.26
76.5579,1476.67
76.6239,1508.17
76.6899,1505.81
76.7559,1523.7
76.8219,1501.34
76.8879,1485.393
76.9539,1450.12
77.0199,1372.72
77.0859,1469.71
77.1519,1497.748
77.2179,1502.81
77.2839,1526.39
77.3499,1522.34
77.4159,1486.74
77.4819,1544.35
77.5479,1476.75
77.6139,1491.76
77.6799,1454.57
77.7459,1482.9
77.8119,1449.72
77.8779,1474.26
77.9439,1459.33
78.0099,1490.12
78.0759,1492.29
78.1419,1449.06
78.2079,1493.226
78.2739,1476.73
78.3399,1461.58
78.4059,1481.5
78.4719,1455.34
78.5379,1506.34
78.6039,1445.12
78.6699,1499.45
78.7359,1473.52
78.8019,1414.19
78.8679,1438.519
78.9339,1519.89
78.9999,1486.52
79.0659,1483.32
79.1319,1394.356
79.1979,1420.66
79.2639,1424.21
79.3299,1403.1
79.3959,1424.91
79.4619,1401.97
79.5279,1396.5
79.5939,1391.55
79.6599,1455.71
79.7259,1435.7
79.7919,1396.31
79.8579,1465.84
79.9239,1436.764
79.9899,1447.3